SN,run,trial,cond,IM,plan,TTL,stim,scale,resp,rt
1,1,01,2,002,004,3.999,4.012,8.543,1,0.385
1,1,02,2,041,012,11.999,12.012,16.543,2,0.370
1,1,03,3,035,020,20.000,20.012,24.543,3,0.394
1,1,04,2,031,028,27.999,28.012,32.543,1,0.380
1,1,05,1,040,038,38.000,38.005,42.536,1,0.436
1,1,06,4,038,050,50.000,50.005,54.536,2,1.550
1,1,07,1,013,060,59.999,60.014,64.545,1,0.346
1,1,08,3,008,068,68.000,68.014,72.545,1,0.342
1,1,09,1,001,080,80.007,80.014,84.545,1,0.445
1,1,10,3,044,092,92.000,92.015,96.546,1,1.275
1,1,11,1,019,100,100.007,100.015,104.546,1,0.402
1,1,12,3,011,108,108.008,108.015,112.546,2,0.341
1,1,13,4,010,120,119.999,120.016,124.547,1,0.378
1,1,14,4,045,128,128.008,128.016,132.547,1,0.518
1,1,15,4,016,138,137.999,138.008,142.539,1,0.007
1,1,16,1,027,148,148.008,148.017,152.548,1,0.377
1,1,17,4,030,156,155.999,156.017,160.548,3,0.445
1,1,18,2,020,168,168.000,168.017,172.548,1,0.306
1,1,19,2,032,178,178.008,178.026,182.557,1,0.251
1,1,20,2,018,186,186.000,186.010,190.541,1,0.124
1,1,21,3,024,196,196.009,196.018,200.549,2,0.477
1,1,22,3,043,206,206.008,206.010,210.541,1,0.373
1,1,23,4,025,218,218.000,218.011,222.542,2,0.632
1,1,24,1,026,230,230.008,230.011,234.542,1,0.557
1,1,25,4,017,240,240.009,240.020,244.551,1,0.397
1,1,26,3,036,252,252.000,252.004,256.535,2,0.551
1,1,27,3,033,264,264.007,264.021,268.552,1,0.554
1,1,28,3,047,272,272.008,272.021,276.552,3,0.337
1,1,29,2,012,282,282.007,282.013,286.544,2,0.300
1,1,30,2,022,292,292.007,292.021,296.552,1,0.419
1,1,31,4,029,302,302.000,302.014,306.545,2,0.075
1,1,32,4,021,310,310.007,310.014,314.545,1,0.596
1,1,33,2,014,322,322.007,322.014,326.545,1,0.313
1,1,34,1,042,330,330.007,330.015,334.546,1,0.484
1,1,35,1,046,342,342.007,342.015,346.546,2,0.699
1,1,36,2,034,350,350.008,350.015,354.546,2,0.379
1,1,37,3,028,360,360.007,360.024,364.555,2,0.333
1,1,38,3,004,372,372.007,372.024,376.555,1,0.453
1,1,39,2,005,384,384.015,384.025,388.556,1,0.612
1,1,40,3,006,394,394.009,394.017,398.548,2,0.439
1,1,41,1,039,404,404.008,404.025,408.556,1,0.460
1,1,42,1,003,416,416.016,416.026,420.557,1,0.413
1,1,43,1,048,424,424.007,424.026,428.557,2,0.356
1,1,44,1,009,432,432.016,432.026,436.557,1,0.403
1,1,45,4,023,442,442.009,442.018,446.549,3,0.806
1,1,46,4,007,454,454.008,454.019,458.550,1,0.915
1,1,47,4,037,462,462.016,462.019,466.550,1,0.359
1,1,48,2,015,474,474.007,474.036,478.567,1,0.545
1,2,01,2,046,004,4.007,4.010,8.541,2,0.263
1,2,02,4,006,012,12.008,12.027,16.558,3,0.294
1,2,03,3,022,024,24.007,24.011,28.542,1,0.355
1,2,04,2,003,032,32.001,32.011,36.542,1,0.436
1,2,05,2,048,042,42.007,42.020,46.551,1,0.355
1,2,06,3,031,050,50.007,50.021,54.552,1,0.309
1,2,07,3,012,060,60.008,60.012,64.543,1,0.582
1,2,08,4,047,070,70.007,70.021,74.552,2,0.417
1,2,09,2,001,082,82.007,82.021,86.552,1,0.211
1,2,10,1,037,092,92.009,92.030,96.561,1,0.607
1,2,11,3,020,104,104.007,104.014,108.545,1,0.373
1,2,12,4,011,112,112.008,112.014,116.545,2,0.379
1,2,13,4,043,124,124.008,124.014,128.545,2,0.107
1,2,14,2,009,136,136.007,136.015,140.546,1,0.343
1,2,15,1,017,148,148.007,148.015,152.546,1,0.372
1,2,16,1,010,160,160.016,160.032,164.563,1,0.359
1,2,17,4,028,168,168.008,168.016,172.547,2,0.364
1,2,18,2,027,180,180.007,180.016,184.547,1,0.616
1,2,19,1,016,188,188.017,188.033,192.564,1,0.533
1,2,20,4,004,198,198.007,198.025,202.556,2,0.914
1,2,21,3,015,206,206.016,206.042,210.573,1,0.358
1,2,22,1,007,214,214.008,214.026,218.557,1,0.678
1,2,23,1,038,224,224.017,224.034,228.565,1,0.470
1,2,24,3,002,236,236.016,236.035,240.566,1,0.809
1,2,25,2,042,248,248.008,248.019,252.550,2,0.756
1,2,26,3,032,258,258.015,258.027,262.558,1,0.382
1,2,27,3,014,268,268.017,268.036,272.567,1,0.394
1,2,28,3,034,280,280.008,280.020,284.551,1,0.439
1,2,29,1,030,292,292.015,292.020,296.551,1,0.789
1,2,30,3,005,300,300.007,300.020,304.551,2,0.531
1,2,31,4,036,312,312.016,312.022,316.553,2,1.503
1,2,32,2,040,322,322.016,322.029,326.560,1,0.375
1,2,33,4,033,332,332.007,332.021,336.552,2,0.442
1,2,34,1,025,340,340.016,340.022,344.553,1,0.341
1,2,35,1,045,350,350.008,350.030,354.561,1,0.467
1,2,36,4,035,362,362.017,362.031,366.562,1,0.306
1,2,37,3,041,370,370.016,370.031,374.562,1,0.374
1,2,38,2,013,378,378.016,378.031,382.562,1,0.762
1,2,39,4,044,390,390.016,390.032,394.563,1,0.296
1,2,40,1,029,398,398.017,398.032,402.563,1,0.529
1,2,41,1,023,408,408.016,408.024,412.555,1,0.268
1,2,42,2,026,418,418.015,418.033,422.564,1,0.803
1,2,43,2,039,426,426.016,426.033,430.564,2,0.815
1,2,44,4,008,436,436.015,436.025,440.556,1,0.380
1,2,45,4,024,444,444.017,444.025,448.556,1,0.570
1,2,46,1,021,456,456.016,456.026,460.557,1,0.741
1,2,47,3,018,466,466.016,466.034,470.565,1,0.699
1,2,48,2,019,474,474.016,474.035,478.566,1,0.342
1,3,01,1,044,004,3.999,4.005,8.536,1,0.367
1,3,02,3,019,014,13.999,14.014,18.545,1,0.359
1,3,03,1,024,024,24.000,24.006,28.537,1,0.343
1,3,04,2,023,034,33.999,34.015,38.546,2,0.447
1,3,05,2,010,042,42.000,42.015,46.546,1,0.712
1,3,06,3,040,052,52.008,52.023,56.554,3,0.882
1,3,07,3,013,060,60.000,60.007,64.538,1,0.284
1,3,08,1,043,072,72.000,72.008,76.539,1,0.403
1,3,09,4,005,084,84.008,84.025,88.556,2,0.460
1,3,10,2,016,092,91.999,92.008,96.539,1,0.395
1,3,11,2,030,102,102.007,102.017,106.548,1,0.392
1,3,12,4,012,114,114.008,114.017,118.548,2,1.364
1,3,13,4,034,126,126.007,126.018,130.549,1,0.963
1,3,14,3,039,134,134.008,134.018,138.549,1,0.417
1,3,15,3,042,142,142.001,142.018,146.549,1,0.368
1,3,16,2,037,154,154.008,154.019,158.550,1,0.179
1,3,17,1,047,164,164.008,164.027,168.558,1,0.471
1,3,18,3,026,174,174.001,174.019,178.550,1,0.344
1,3,19,4,015,184,184.008,184.011,188.542,2,1.290
1,3,20,4,018,194,194.008,194.020,198.551,1,0.609
1,3,21,2,038,206,205.999,206.004,210.535,1,0.716
1,3,22,1,008,214,214.008,214.021,218.552,1,1.210
1,3,23,4,032,222,222.000,222.004,226.535,1,0.303
1,3,24,1,033,232,232.008,232.013,236.544,1,0.325
1,3,25,4,020,240,240.000,240.013,244.544,1,0.664
1,3,26,4,031,250,250.009,250.022,254.553,1,0.291
1,3,27,1,004,258,258.009,258.022,262.553,1,0.399
1,3,28,2,025,270,270.008,270.023,274.554,1,0.246
1,3,29,3,048,282,282.008,282.023,286.554,2,0.578
1,3,30,2,021,292,292.008,292.015,296.546,1,0.490
1,3,31,3,046,304,304.007,304.015,308.546,1,0.639
1,3,32,4,002,312,312.008,312.016,316.547,1,0.345
1,3,33,2,007,324,324.007,324.016,328.547,1,0.499
1,3,34,2,017,332,332.007,332.016,336.547,1,0.297
1,3,35,4,041,342,342.008,342.025,346.556,1,0.278
1,3,36,1,035,352,352.016,352.034,356.565,1,0.289
1,3,37,4,022,364,364.008,364.017,368.548,1,0.254
1,3,38,4,014,372,372.008,372.018,376.549,2,0.100
1,3,39,3,003,384,384.016,384.035,388.566,2,0.814
1,3,40,1,036,392,392.008,392.018,396.549,1,0.383
1,3,41,2,045,402,402.016,402.027,406.558,1,0.381
1,3,42,1,028,414,414.015,414.027,418.558,1,0.280
1,3,43,3,001,426,426.008,426.011,430.542,2,0.771
1,3,44,3,027,436,436.015,436.021,440.552,1,0.265
1,3,45,1,011,444,444.016,444.020,448.551,1,0.533
1,3,46,1,006,456,456.009,456.020,460.551,1,2.198
1,3,47,3,009,464,464.016,464.021,468.552,1,0.444
1,3,48,2,029,472,472.008,472.021,476.552,2,0.181
1,4,01,3,016,004,4.007,4.012,8.543,1,0.450
1,4,02,1,020,016,16.000,16.013,20.544,1,0.367
1,4,03,1,002,026,26.007,26.021,30.552,1,0.283
1,4,04,4,027,036,36.008,36.013,40.544,1,0.466
1,4,05,2,033,048,47.999,48.014,52.545,1,1.024
1,4,06,3,029,056,56.008,56.014,60.545,2,0.630
1,4,07,1,015,064,64.000,64.014,68.545,1,0.631
1,4,08,4,026,074,74.008,74.023,78.554,1,1.078
1,4,09,2,043,084,84.007,84.015,88.546,1,0.393
1,4,10,3,017,096,95.998,96.015,100.546,1,0.344
1,4,11,1,032,106,106.008,106.024,110.555,1,0.516
1,4,12,1,031,118,118.008,118.024,122.555,1,0.378
1,4,13,2,035,130,130.006,130.025,134.556,2,1.306
1,4,14,4,039,138,138.008,138.025,142.556,2,0.393
1,4,15,4,009,146,146.007,146.025,150.556,1,0.007
1,4,16,3,045,158,158.007,158.026,162.557,1,0.285
1,4,17,3,038,170,170.008,170.026,174.557,1,1.341
1,4,18,2,004,178,178.016,178.026,182.557,1,0.360
1,4,19,1,041,190,190.007,190.010,194.541,1,0.858
1,4,20,2,036,198,198.008,198.027,202.558,1,1.508
1,4,21,4,003,210,210.016,210.027,214.558,1,0.268
1,4,22,3,037,218,218.009,218.028,222.559,2,0.179
1,4,23,4,046,228,228.007,228.020,232.551,1,0.309
1,4,24,2,028,238,238.015,238.028,242.559,1,0.531
1,4,25,1,018,246,246.008,246.012,250.543,1,0.569
1,4,26,4,048,258,258.016,258.029,262.560,1,0.378
1,4,27,1,022,268,268.015,268.021,272.552,1,0.476
1,4,28,1,014,276,276.016,276.021,280.552,1,0.802
1,4,29,1,005,284,284.016,284.022,288.553,1,0.505
1,4,30,1,012,296,296.008,296.022,300.553,1,0.641
1,4,31,4,001,308,308.015,308.023,312.554,1,0.493
1,4,32,2,047,320,320.016,320.023,324.554,1,0.672
1,4,33,4,040,328,328.007,328.023,332.554,1,0.312
1,4,34,3,007,338,338.016,338.032,342.563,1,0.522
1,4,35,3,030,348,348.015,348.024,352.555,1,0.418
1,4,36,2,024,360,360.007,360.024,364.555,1,0.623
1,4,37,2,011,370,370.015,370.033,374.564,1,0.349
1,4,38,2,044,380,380.007,380.025,384.556,0,0.000
1,4,39,4,019,390,390.015,390.033,394.564,1,0.363
1,4,40,2,006,398,398.016,398.034,402.565,2,0.317
1,4,41,4,042,410,410.007,410.018,414.549,1,0.093
1,4,42,1,034,420,420.016,420.026,424.557,1,0.124
1,4,43,3,025,432,432.015,432.027,436.558,1,1.178
1,4,44,3,023,442,442.016,442.019,446.550,1,1.430
1,4,45,3,010,450,450.016,450.019,454.550,1,0.326
1,4,46,4,013,458,458.015,458.019,462.550,1,0.243
1,4,47,2,008,466,466.015,466.019,470.550,1,0.840
1,4,48,3,021,474,474.016,474.020,478.551,1,0.132
2,1,01,2,004,004,4.007,4.013,8.544,1,0.668
2,1,02,4,035,014,14.009,14.022,18.553,1,0.581
2,1,03,4,048,024,24.008,24.014,28.545,1,0.709
2,1,04,3,024,034,34.000,34.006,38.537,1,0.412
2,1,05,4,022,046,46.009,46.023,50.554,1,0.007
2,1,06,2,010,056,56.008,56.015,60.546,1,0.381
2,1,07,2,017,066,66.008,66.024,70.555,1,0.587
2,1,08,3,036,078,78.008,78.024,82.555,1,0.370
2,1,09,4,003,088,88.008,88.016,92.547,1,0.153
2,1,10,3,038,100,100.009,100.017,104.548,3,0.858
2,1,11,3,034,108,108.008,108.017,112.548,1,0.133
2,1,12,2,021,116,116.009,116.017,120.548,1,0.511
2,1,13,3,011,126,126.008,126.026,130.557,1,0.208
2,1,14,1,023,136,136.009,136.018,140.549,1,0.043
2,1,15,1,045,148,148.009,148.018,152.549,2,0.444
2,1,16,1,037,156,156.009,156.018,160.549,2,1.121
2,1,17,1,032,164,164.009,164.019,168.550,2,1.517
2,1,18,4,030,172,172.009,172.019,176.550,1,0.902
2,1,19,1,020,182,182.009,182.027,186.558,2,1.193
2,1,20,3,014,194,194.017,194.028,198.559,1,0.285
2,1,21,1,008,204,204.008,204.020,208.551,1,0.439
2,1,22,2,001,216,216.007,216.020,220.551,1,0.470
2,1,23,4,007,226,226.017,226.029,230.560,1,0.246
2,1,24,2,039,234,234.008,234.013,238.544,1,0.781
2,1,25,3,047,246,246.016,246.030,250.561,1,0.327
2,1,26,3,009,254,254.016,254.030,258.561,1,0.345
2,1,27,4,031,262,262.017,262.030,266.561,1,0.423
2,1,28,2,044,274,274.016,274.031,278.562,1,0.189
2,1,29,1,041,286,286.017,286.031,290.562,1,0.612
2,1,30,4,029,298,298.009,298.015,302.546,1,0.512
2,1,31,4,025,310,310.017,310.032,314.563,1,0.284
2,1,32,1,042,318,318.009,318.015,322.546,1,0.209
2,1,33,3,005,326,326.016,326.032,330.563,3,0.125
2,1,34,2,028,334,334.016,334.033,338.564,1,0.224
2,1,35,3,019,342,342.017,342.033,346.564,1,0.066
2,1,36,4,012,350,350.008,350.016,354.547,1,0.931
2,1,37,1,002,360,360.017,360.025,364.556,1,0.471
2,1,38,1,016,368,368.016,368.025,372.556,1,0.307
2,1,39,1,040,380,380.007,380.026,384.557,1,0.193
2,1,40,3,015,390,390.017,390.034,394.565,2,1.099
2,1,41,4,027,402,402.016,402.035,406.566,1,0.303
2,1,42,2,018,414,414.016,414.019,418.550,2,1.041
2,1,43,4,026,422,422.016,422.019,426.550,1,0.359
2,1,44,2,013,430,430.016,430.019,434.550,1,0.397
2,1,45,3,043,440,440.016,440.028,444.559,1,0.441
2,1,46,1,046,452,452.016,452.028,456.559,1,0.651
2,1,47,2,033,462,462.024,462.037,466.568,1,0.707
2,1,48,2,006,472,472.015,472.029,476.560,1,0.254
2,2,01,1,038,004,4.000,4.015,8.546,3,0.290
2,2,02,1,024,014,13.992,14.007,18.538,1,0.253
2,2,03,2,048,026,25.993,26.007,30.538,1,0.264
2,2,04,2,012,036,36.000,36.016,40.547,1,0.186
2,2,05,1,005,044,43.992,43.999,48.530,4,0.483
2,2,06,3,032,054,54.000,54.008,58.539,1,0.578
2,2,07,3,046,062,62.000,62.008,66.539,1,0.267
2,2,08,4,039,074,74.000,74.009,78.540,1,0.078
2,2,09,4,010,082,82.000,82.009,86.540,1,0.007
2,2,10,2,035,092,91.992,92.001,96.532,1,0.377
2,2,11,2,007,100,99.999,100.018,104.549,1,0.929
2,2,12,3,002,112,111.999,112.018,116.549,1,0.326
2,2,13,4,006,124,124.000,124.019,128.550,1,0.223
2,2,14,1,014,134,134.000,134.011,138.542,1,0.257
2,2,15,2,029,146,146.000,146.011,150.542,1,0.250
2,2,16,3,041,154,154.000,154.011,158.542,1,0.376
2,2,17,4,013,166,166.000,166.012,170.543,1,0.395
2,2,18,1,034,176,176.000,176.004,180.535,1,0.293
2,2,19,4,044,184,183.999,184.004,188.535,1,0.323
2,2,20,2,003,196,196.000,196.005,200.536,1,0.223
2,2,21,3,020,206,206.007,206.013,210.544,1,0.377
2,2,22,3,040,216,216.000,216.005,220.536,1,0.366
2,2,23,4,021,226,226.000,226.014,230.545,1,0.227
2,2,24,1,019,238,238.007,238.014,242.545,1,0.182
2,2,25,3,016,250,250.007,250.015,254.546,1,0.230
2,2,26,4,004,260,260.000,260.007,264.538,1,0.413
2,2,27,1,047,272,272.008,272.024,276.555,1,0.257
2,2,28,2,030,282,282.008,282.016,286.547,1,0.228
2,2,29,4,001,292,292.001,292.008,296.539,2,0.264
2,2,30,1,009,300,300.008,300.025,304.556,1,0.292
2,2,31,2,022,308,307.999,308.008,312.539,1,0.352
2,2,32,2,026,318,318.007,318.017,322.548,1,0.252
2,2,33,4,033,330,330.008,330.017,334.548,1,0.124
2,2,34,1,011,338,338.009,338.018,342.549,1,0.132
2,2,35,3,008,346,346.008,346.018,350.549,1,0.329
2,2,36,4,028,354,354.007,354.018,358.549,1,0.272
2,2,37,1,043,366,366.007,366.018,370.549,1,0.326
2,2,38,1,036,378,378.007,378.019,382.550,3,0.198
2,2,39,2,027,390,390.000,390.019,394.550,1,0.184
2,2,40,1,015,398,398.008,398.020,402.551,1,0.229
2,2,41,3,042,410,410.008,410.020,414.551,2,0.219
2,2,42,3,045,420,420.008,420.012,424.543,1,0.245
2,2,43,3,037,432,432.008,432.013,436.544,1,0.007
2,2,44,2,031,440,440.008,440.013,444.544,1,0.352
2,2,45,4,018,450,450.008,450.021,454.552,1,0.449
2,2,46,3,023,458,458.007,458.022,462.553,1,0.877
2,2,47,2,025,466,466.007,466.022,470.553,1,0.979
2,2,48,4,017,474,474.009,474.022,478.553,1,0.325
2,3,01,4,042,004,4.007,4.014,8.545,1,0.235
2,3,02,4,040,014,14.000,14.006,18.537,1,0.120
2,3,03,3,027,022,22.008,22.023,26.554,1,0.266
2,3,04,3,026,030,30.000,30.007,34.538,1,1.019
2,3,05,4,046,042,42.009,42.024,46.555,1,0.724
2,3,06,3,022,050,50.000,50.007,54.538,1,0.007
2,3,07,2,043,060,60.008,60.016,64.547,1,0.201
2,3,08,2,005,070,70.008,70.024,74.555,1,0.591
2,3,09,4,008,078,78.009,78.025,82.556,1,0.247
2,3,10,1,028,090,90.008,90.025,94.556,1,0.166
2,3,11,3,025,102,102.007,102.026,106.557,1,0.382
2,3,12,3,048,112,111.999,112.018,116.549,1,0.361
2,3,13,2,036,124,124.008,124.018,128.549,1,0.352
2,3,14,4,002,134,134.008,134.027,138.558,1,0.229
2,3,15,1,039,146,146.001,146.010,150.541,1,0.304
2,3,16,2,034,158,158.008,158.012,162.543,1,0.243
2,3,17,1,004,170,170.007,170.012,174.543,1,0.172
2,3,18,1,001,178,178.000,178.012,182.543,1,0.279
2,3,19,2,009,186,186.008,186.012,190.543,1,0.287
2,3,20,1,010,196,196.008,196.020,200.551,1,0.276
2,3,21,4,045,208,208.008,208.021,212.552,4,0.212
2,3,22,2,024,220,220.009,220.021,224.552,1,0.332
2,3,23,1,021,230,230.008,230.013,234.544,1,0.168
2,3,24,3,029,242,242.015,242.030,246.561,1,0.260
2,3,25,1,018,250,250.007,250.014,254.545,1,0.254
2,3,26,3,007,260,260.008,260.023,264.554,1,0.373
2,3,27,2,015,268,268.007,268.023,272.554,1,0.629
2,3,28,4,016,280,280.009,280.023,284.554,1,0.223
2,3,29,3,031,290,290.015,290.032,294.563,1,0.285
2,3,30,4,032,300,300.007,300.024,304.555,1,0.265
2,3,31,1,033,310,310.009,310.016,314.547,1,0.303
2,3,32,4,020,318,318.007,318.016,322.547,1,0.233
2,3,33,1,017,330,330.009,330.017,334.548,1,0.378
2,3,34,2,014,338,338.016,338.034,342.565,1,0.472
2,3,35,3,030,350,350.016,350.034,354.565,1,0.344
2,3,36,2,011,362,362.008,362.018,366.549,1,0.665
2,3,37,2,047,372,372.016,372.026,376.557,1,0.264
2,3,38,1,013,380,380.007,380.027,384.558,1,0.398
2,3,39,3,003,390,390.016,390.020,394.551,1,0.428
2,3,40,4,023,400,400.016,400.027,404.558,1,0.223
2,3,41,1,044,410,410.008,410.019,414.550,1,0.141
2,3,42,3,035,418,418.015,418.020,422.551,1,0.312
2,3,43,3,012,430,430.007,430.020,434.551,1,0.225
2,3,44,4,041,438,438.015,438.020,442.551,1,0.529
2,3,45,2,019,448,448.016,448.029,452.560,1,0.500
2,3,46,2,038,456,456.017,456.029,460.560,1,0.367
2,3,47,1,006,464,464.009,464.013,468.544,1,0.277
2,3,48,4,037,472,472.016,472.030,476.561,1,0.306
2,4,01,4,024,004,3.999,4.016,8.547,1,0.266
2,4,02,4,011,016,15.999,16.017,20.548,1,0.266
2,4,03,3,039,024,24.007,24.017,28.548,1,0.279
2,4,04,3,018,032,32.000,32.017,36.548,1,0.104
2,4,05,2,045,044,43.999,44.017,48.548,1,0.156
2,4,06,2,046,052,52.000,52.018,56.549,1,1.135
2,4,07,1,026,064,63.999,64.002,68.533,1,0.329
2,4,08,1,048,074,73.999,74.010,78.541,1,0.268
2,4,09,3,044,082,81.999,82.010,86.541,1,0.454
2,4,10,4,038,090,90.008,90.011,94.542,1,0.304
2,4,11,3,028,102,102.008,102.011,106.542,1,0.172
2,4,12,4,009,110,109.998,110.011,114.542,1,0.369
2,4,13,3,001,122,122.008,122.012,126.543,1,0.946
2,4,14,3,004,132,132.007,132.020,136.551,1,0.318
2,4,15,2,023,142,142.000,142.012,146.543,1,0.680
2,4,16,2,040,152,152.007,152.021,156.552,1,0.430
2,4,17,2,016,160,160.000,160.005,164.536,1,0.248
2,4,18,1,003,168,168.007,168.022,172.553,1,0.365
2,4,19,4,005,180,180.008,180.022,184.553,1,0.135
2,4,20,1,031,188,188.007,188.022,192.553,1,0.224
2,4,21,4,015,198,198.008,198.014,202.545,1,0.160
2,4,22,2,037,210,209.999,210.015,214.546,1,0.398
2,4,23,1,035,218,218.006,218.015,222.546,1,0.155
2,4,24,1,025,230,230.008,230.015,234.546,1,0.150
2,4,25,4,034,240,240.000,240.008,244.539,1,0.171
2,4,26,1,027,250,250.007,250.016,254.547,1,0.504
2,4,27,2,032,260,259.999,260.008,264.539,1,0.251
2,4,28,3,006,270,270.007,270.017,274.548,1,0.456
2,4,29,3,033,280,280.006,280.009,284.540,1,0.190
2,4,30,3,010,290,289.999,290.002,294.533,1,0.232
2,4,31,4,043,298,298.008,298.018,302.549,1,0.260
2,4,32,2,002,310,310.008,310.018,314.549,1,0.147
2,4,33,2,008,318,318.006,318.018,322.549,1,0.451
2,4,34,2,020,330,330.007,330.019,334.550,1,0.311
2,4,35,1,012,338,338.007,338.019,342.550,1,0.229
2,4,36,4,014,350,350.007,350.019,354.550,1,0.402
2,4,37,1,029,360,360.007,360.011,364.542,1,0.175
2,4,38,3,021,372,372.006,372.012,376.543,1,0.326
2,4,39,4,036,382,382.007,382.021,386.552,2,0.243
2,4,40,3,013,394,394.007,394.021,398.552,1,0.275
2,4,41,1,007,404,404.015,404.030,408.561,1,0.792
2,4,42,1,030,416,416.015,416.030,420.561,1,0.226
2,4,43,3,017,424,424.008,424.014,428.545,2,0.183
2,4,44,2,041,432,432.016,432.031,436.562,1,0.261
2,4,45,1,022,444,444.015,444.031,448.562,1,0.494
2,4,46,2,042,454,454.016,454.023,458.554,1,0.321
2,4,47,4,047,464,464.016,464.032,468.563,1,0.324
2,4,48,4,019,476,476.015,476.032,480.563,3,0.382
3,1,01,4,027,004,4.007,4.026,8.541,2,0.721
3,1,02,3,029,016,16.007,16.026,20.558,2,0.961
3,1,03,1,042,028,27.999,28.010,32.526,2,0.754
3,1,04,1,025,038,38.008,38.019,42.550,2,0.827
3,1,05,1,004,050,50.007,50.019,54.551,2,0.366
3,1,06,1,007,058,58.007,58.020,62.534,3,0.464
3,1,07,2,028,068,68.007,68.012,72.543,2,1.626
3,1,08,1,041,076,76.007,76.012,80.543,2,0.542
3,1,09,2,033,088,88.008,88.012,92.544,2,0.856
3,1,10,3,003,100,100.007,100.014,104.544,2,0.951
3,1,11,3,036,110,110.008,110.021,114.553,2,0.843
3,1,12,1,021,120,120.007,120.013,124.545,1,0.352
3,1,13,2,024,128,128.016,128.030,132.561,3,1.092
3,1,14,4,037,140,140.007,140.015,144.545,1,0.564
3,1,15,4,044,152,152.008,152.014,156.546,1,1.073
3,1,16,2,048,160,160.016,160.031,164.563,3,0.822
3,1,17,3,022,168,168.008,168.015,172.546,1,0.466
3,1,18,4,026,180,180.007,180.015,184.547,1,0.597
3,1,19,3,035,192,192.016,192.032,196.547,1,0.720
3,1,20,3,046,202,202.007,202.024,206.556,1,0.713
3,1,21,2,017,214,214.007,214.025,218.556,1,1.003
3,1,22,2,023,226,226.016,226.025,230.556,3,1.492
3,1,23,4,020,234,234.007,234.025,238.557,1,0.464
3,1,24,4,016,242,242.015,242.026,246.557,2,0.681
3,1,25,2,008,254,254.015,254.026,258.541,2,0.498
3,1,26,2,010,264,264.008,264.018,268.549,3,0.779
3,1,27,3,015,274,274.015,274.027,278.558,2,0.994
3,1,28,3,047,286,286.016,286.027,290.558,1,0.611
3,1,29,2,038,296,296.015,296.019,300.550,3,0.495
3,1,30,2,043,304,304.015,304.019,308.551,1,0.487
3,1,31,4,034,316,316.007,316.020,320.551,1,0.521
3,1,32,3,011,324,324.015,324.020,328.551,2,0.578
3,1,33,4,002,334,334.007,334.013,338.543,1,0.413
3,1,34,1,032,344,344.015,344.021,348.552,1,0.852
3,1,35,4,006,354,354.016,354.029,358.561,2,0.527
3,1,36,4,039,362,362.015,362.030,366.544,1,0.517
3,1,37,3,013,372,372.015,372.022,376.553,2,1.022
3,1,38,2,040,382,382.007,382.014,386.545,2,1.304
3,1,39,2,030,390,390.015,390.031,394.562,2,0.382
3,1,40,3,012,398,398.016,398.031,402.562,2,0.606
3,1,41,1,019,406,406.016,406.031,410.562,3,0.458
3,1,42,1,031,416,416.016,416.023,420.538,1,0.463
3,1,43,1,045,424,424.015,424.024,428.555,1,0.558
3,1,44,3,001,432,432.015,432.025,436.555,1,0.596
3,1,45,1,014,444,444.016,444.024,448.555,1,0.265
3,1,46,4,005,452,452.015,452.024,456.539,1,0.007
3,1,47,1,018,464,464.024,464.041,468.573,1,0.272
3,1,48,4,009,474,474.015,474.034,478.548,1,0.485
3,2,01,4,038,004,4.000,4.006,8.537,2,0.635
3,2,02,3,025,016,16.002,16.006,20.537,2,0.869
3,2,03,1,003,026,26.001,26.015,30.546,1,0.349
3,2,04,2,005,036,36.001,36.007,40.521,2,0.774
3,2,05,1,012,048,48.002,48.008,52.538,3,1.303
3,2,06,3,019,056,56.000,56.007,60.539,2,0.726
3,2,07,2,034,068,68.001,68.008,72.522,2,1.424
3,2,08,3,014,076,76.008,76.025,80.556,2,0.741
3,2,09,4,043,086,86.001,86.017,90.548,1,0.488
3,2,10,1,022,094,94.000,94.017,98.548,1,0.586
3,2,11,2,006,104,104.002,104.009,108.540,2,0.675
3,2,12,4,033,112,112.001,112.009,116.524,1,0.643
3,2,13,3,045,122,122.002,122.019,126.549,1,0.548
3,2,14,2,002,130,130.000,130.018,134.549,3,1.009
3,2,15,4,017,140,140.008,140.027,144.558,2,0.463
3,2,16,2,016,152,152.000,152.011,156.542,3,0.492
3,2,17,2,027,162,162.001,162.019,166.550,3,1.256
3,2,18,3,042,172,172.009,172.011,176.543,1,0.554
3,2,19,3,021,180,180.001,180.011,184.526,1,0.436
3,2,20,4,023,190,190.008,190.020,194.551,1,1.025
3,2,21,1,011,198,198.001,198.004,202.535,1,0.485
3,2,22,1,046,210,210.009,210.021,214.552,1,0.279
3,2,23,4,028,222,222.008,222.021,226.553,3,0.296
3,2,24,1,013,234,234.009,234.022,238.553,1,0.242
3,2,25,4,008,246,246.001,246.005,250.520,1,0.051
3,2,26,3,004,254,254.010,254.022,258.554,1,0.228
3,2,27,3,007,264,264.000,264.014,268.546,2,0.703
3,2,28,2,037,274,274.010,274.023,278.554,2,0.616
3,2,29,3,018,286,286.008,286.023,290.555,1,0.669
3,2,30,3,031,296,296.009,296.015,300.547,1,0.577
3,2,31,3,032,308,308.008,308.016,312.547,1,0.342
3,2,32,4,030,320,320.008,320.016,324.547,1,0.474
3,2,33,3,041,332,332.001,332.017,336.548,2,0.438
3,2,34,2,020,340,340.009,340.017,344.548,2,0.629
3,2,35,2,009,348,348.001,348.017,352.548,4,0.681
3,2,36,2,026,360,360.009,360.018,364.549,2,0.316
3,2,37,1,029,370,370.009,370.026,374.557,1,0.491
3,2,38,4,010,382,382.010,382.027,386.541,1,0.328
3,2,39,1,015,390,390.009,390.027,394.558,1,0.371
3,2,40,1,035,398,398.009,398.027,402.558,1,0.550
3,2,41,2,044,410,410.010,410.028,414.559,1,0.291
3,2,42,4,040,420,420.010,420.020,424.534,2,0.483
3,2,43,1,036,432,432.009,432.020,436.551,1,0.483
3,2,44,1,001,442,442.009,442.012,446.527,1,0.340
3,2,45,1,047,452,452.009,452.021,456.552,2,0.611
3,2,46,4,048,460,460.017,460.021,464.552,3,0.526
3,2,47,4,024,468,468.008,468.021,472.553,2,0.756
3,2,48,2,039,476,476.017,476.021,480.536,2,0.670
3,3,01,3,039,004,4.009,4.012,8.543,1,0.623
3,3,02,3,020,012,12.000,12.012,16.543,1,0.468
3,3,03,2,047,024,24.001,24.012,28.527,3,0.305
3,3,04,4,025,034,34.008,34.021,38.552,1,0.507
3,3,05,3,026,046,46.001,46.005,50.536,1,0.603
3,3,06,2,036,056,56.008,56.014,60.528,2,0.538
3,3,07,4,045,068,68.009,68.014,72.529,2,0.940
3,3,08,2,029,078,78.002,78.006,82.521,3,0.517
3,3,09,2,012,090,90.008,90.023,94.554,2,1.137
3,3,10,4,019,098,98.009,98.023,102.538,2,0.383
3,3,11,1,030,106,106.009,106.024,110.555,2,0.460
3,3,12,4,041,116,116.010,116.016,120.547,1,0.452
3,3,13,1,023,126,126.001,126.007,130.539,2,0.477
3,3,14,1,038,136,136.008,136.016,140.547,2,1.364
3,3,15,3,016,146,146.000,146.008,150.540,2,0.582
3,3,16,3,009,154,154.009,154.025,158.556,2,0.689
3,3,17,1,017,164,164.000,164.017,168.548,1,0.507
3,3,18,1,048,176,176.001,176.018,180.549,1,0.273
3,3,19,3,027,188,188.010,188.018,192.549,3,0.319
3,3,20,1,028,196,196.000,196.018,200.549,2,0.589
3,3,21,4,018,208,208.008,208.019,212.550,2,0.388
3,3,22,4,021,218,218.008,218.027,222.559,1,0.486
3,3,23,2,022,228,228.000,228.003,232.534,3,0.411
3,3,24,2,003,236,236.008,236.020,240.551,2,0.476
3,3,25,2,015,244,244.001,244.020,248.551,2,0.504
3,3,26,1,043,254,254.009,254.012,258.543,1,0.396
3,3,27,3,034,264,264.010,264.021,268.552,1,0.434
3,3,28,3,005,274,274.009,274.013,278.544,1,0.394
3,3,29,2,001,284,284.009,284.021,288.552,2,1.276
3,3,30,3,006,296,296.008,296.022,300.553,3,1.310
3,3,31,2,046,304,304.009,304.022,308.553,2,0.371
3,3,32,1,040,316,316.010,316.022,320.554,1,0.338
3,3,33,1,024,324,324.008,324.023,328.554,1,0.361
3,3,34,2,013,336,336.008,336.023,340.554,4,0.447
3,3,35,1,033,344,344.008,344.023,348.554,1,0.414
3,3,36,2,035,356,356.017,356.024,360.555,3,0.398
3,3,37,4,007,368,368.010,368.024,372.555,1,0.402
3,3,38,4,032,380,380.009,380.024,384.556,3,0.363
3,3,39,3,002,388,388.017,388.025,392.556,1,0.546
3,3,40,4,004,398,398.009,398.017,402.548,1,0.096
3,3,41,3,037,406,406.017,406.034,410.565,3,0.122
3,3,42,1,008,418,418.009,418.017,422.549,1,0.441
3,3,43,2,011,426,426.017,426.034,430.566,2,0.802
3,3,44,4,042,434,434.018,434.035,438.566,1,0.757
3,3,45,4,014,442,442.018,442.035,446.566,1,0.507
3,3,46,1,010,454,454.018,454.035,458.566,3,0.435
3,3,47,4,031,462,462.009,462.019,466.550,0,0.000
3,3,48,3,044,472,472.017,472.028,476.559,0,0.000
3,4,01,3,040,004,4.000,4.010,8.541,2,0.607
3,4,02,2,007,012,12.001,12.010,16.541,3,0.607
3,4,03,3,028,024,24.000,24.011,28.542,1,0.329
3,4,04,2,041,034,34.008,34.019,38.550,2,0.387
3,4,05,4,035,046,46.001,46.020,50.551,1,0.428
3,4,06,3,008,056,56.001,56.012,60.543,1,0.580
3,4,07,2,032,066,66.008,66.020,70.551,2,1.167
3,4,08,4,003,076,76.000,76.012,80.544,1,0.480
3,4,09,1,006,086,86.009,86.021,90.552,2,0.303
3,4,10,4,012,094,94.009,94.021,98.536,2,0.677
3,4,11,1,027,102,102.009,102.021,106.553,1,0.458
3,4,12,4,029,112,112.009,112.014,116.545,2,0.675
3,4,13,1,039,122,122.000,122.006,126.520,0,0.000
3,4,14,4,015,130,130.009,130.022,134.554,1,1.115
3,4,15,1,026,142,142.000,142.006,146.521,1,0.495
3,4,16,2,018,154,154.008,154.023,158.554,2,0.719
3,4,17,3,010,166,166.008,166.024,170.555,2,0.549
3,4,18,2,045,174,174.001,174.007,178.539,2,0.950
3,4,19,4,001,186,186.008,186.024,190.556,1,0.934
3,4,20,1,005,194,194.001,194.008,198.539,0,0.000
3,4,21,2,031,204,204.008,204.017,208.531,3,0.317
3,4,22,3,024,214,214.008,214.025,218.540,1,0.376
3,4,23,1,037,226,226.001,226.009,230.540,2,0.731
3,4,24,3,048,236,236.008,236.018,240.532,1,0.962
3,4,25,2,025,244,244.008,244.018,248.549,2,1.086
3,4,26,1,034,256,256.009,256.018,260.550,1,0.611
3,4,27,2,021,268,268.008,268.019,272.550,0,0.000
3,4,28,2,014,280,280.008,280.019,284.550,2,1.527
3,4,29,4,047,292,292.009,292.020,296.551,1,0.233
3,4,30,1,020,300,300.009,300.020,304.551,1,0.347
3,4,31,3,033,310,310.008,310.012,314.543,2,1.322
3,4,32,1,002,322,322.017,322.029,326.560,2,0.457
3,4,33,4,013,330,330.008,330.012,334.544,0,0.000
3,4,34,2,019,340,340.016,340.021,344.552,1,1.393
3,4,35,3,038,348,348.009,348.021,352.553,2,1.001
3,4,36,4,046,358,358.009,358.013,362.545,1,0.359
3,4,37,2,042,370,370.016,370.030,374.562,2,0.868
3,4,38,4,022,382,382.008,382.014,386.546,2,0.671
3,4,39,3,023,390,390.016,390.031,394.562,2,0.590
3,4,40,3,030,398,398.009,398.015,402.546,2,0.740
3,4,41,4,011,408,408.009,408.023,412.555,0,0.000
3,4,42,2,004,416,416.016,416.024,420.555,2,1.052
3,4,43,1,016,426,426.008,426.016,430.547,3,0.532
3,4,44,3,043,438,438.016,438.033,442.564,2,0.753
3,4,45,4,036,446,446.017,446.033,450.564,1,0.512
3,4,46,3,017,454,454.017,454.033,458.548,0,0.000
3,4,47,1,044,462,462.009,462.017,466.548,1,0.376
3,4,48,1,009,472,472.016,472.026,476.540,3,2.610
4,1,01,4,045,004,4.000,4.021,8.552,1,0.936
4,1,02,3,026,012,12.000,12.021,16.552,1,0.852
4,1,03,2,012,022,22.000,22.013,26.544,3,0.740
4,1,04,1,031,034,33.999,34.013,38.545,1,0.448
4,1,05,2,001,046,45.999,46.014,50.545,2,0.993
4,1,06,4,007,056,55.999,56.006,60.537,1,0.743
4,1,07,4,046,066,66.000,66.015,70.529,2,0.702
4,1,08,3,035,076,75.999,76.007,80.538,2,0.498
4,1,09,3,027,088,88.000,88.007,92.522,2,0.686
4,1,10,2,006,096,95.999,96.007,100.539,2,0.469
4,1,11,4,048,104,104.000,104.008,108.539,1,0.709
4,1,12,2,017,116,116.000,116.008,120.539,1,0.652
4,1,13,1,013,124,124.007,124.025,128.556,1,0.502
4,1,14,1,040,132,131.999,132.008,136.540,3,1.162
4,1,15,2,015,140,140.007,140.025,144.557,2,0.387
4,1,16,3,042,150,150.000,150.017,154.549,2,0.668
4,1,17,1,034,160,159.999,160.009,164.541,1,0.732
4,1,18,3,024,170,170.007,170.018,174.549,1,0.561
4,1,19,4,041,180,179.999,180.010,184.541,3,0.633
4,1,20,3,011,188,188.008,188.010,192.542,1,0.663
4,1,21,4,021,200,200.007,200.011,204.542,1,0.502
4,1,22,1,047,212,212.000,212.011,216.542,1,0.374
4,1,23,2,043,224,224.007,224.012,228.543,1,0.437
4,1,24,1,028,236,236.008,236.012,240.527,1,0.595
4,1,25,3,019,244,243.999,244.012,248.543,2,0.939
4,1,26,1,037,252,252.007,252.012,256.544,1,0.303
4,1,27,4,010,262,261.999,262.005,266.536,1,0.400
4,1,28,1,023,274,274.008,274.022,278.553,1,0.403
4,1,29,4,018,282,282.008,282.022,286.536,3,0.855
4,1,30,1,029,292,292.007,292.014,296.545,1,0.277
4,1,31,2,025,302,302.007,302.022,306.554,2,0.400
4,1,32,2,002,314,313.999,314.006,318.538,1,0.337
4,1,33,4,016,326,326.007,326.023,330.555,1,0.705
4,1,34,1,009,336,336.007,336.015,340.530,1,0.276
4,1,35,4,022,348,348.008,348.016,352.547,1,0.400
4,1,36,2,036,356,356.007,356.016,360.547,1,0.717
4,1,37,2,030,366,366.006,366.025,370.539,2,0.376
4,1,38,3,005,374,374.007,374.025,378.556,2,0.591
4,1,39,1,044,384,384.007,384.017,388.532,1,0.368
4,1,40,3,004,396,396.007,396.017,400.549,1,1.076
4,1,41,4,020,408,408.007,408.018,412.549,2,0.723
4,1,42,1,039,416,416.006,416.018,420.549,2,0.787
4,1,43,2,008,426,426.015,426.027,430.541,2,0.432
4,1,44,3,003,436,436.007,436.019,440.550,2,0.579
4,1,45,3,038,448,448.007,448.019,452.550,2,0.747
4,1,46,2,014,456,456.016,456.019,460.551,2,0.755
4,1,47,3,032,468,468.008,468.020,472.551,2,0.835
4,1,48,4,033,476,476.016,476.020,480.551,1,0.574
4,2,01,3,022,004,3.999,4.011,8.526,2,0.368
4,2,02,2,024,012,12.000,12.011,16.543,1,0.413
4,2,03,2,004,022,22.008,22.020,26.551,2,0.357
4,2,04,1,001,032,32.000,32.012,36.543,1,0.541
4,2,05,4,040,042,42.008,42.021,46.552,1,0.930
4,2,06,1,017,052,52.008,52.013,56.544,1,0.398
4,2,07,1,008,060,60.006,60.014,64.544,1,0.418
4,2,08,3,048,068,68.007,68.013,72.528,2,1.121
4,2,09,4,034,078,78.008,78.022,82.553,1,0.937
4,2,10,4,039,086,86.008,86.022,90.554,3,1.317
4,2,11,2,032,098,97.999,98.007,102.537,1,0.358
4,2,12,4,047,108,108.007,108.015,112.546,2,0.527
4,2,13,3,018,118,118.007,118.023,122.555,4,0.752
4,2,14,3,046,128,128.007,128.015,132.547,3,0.396
4,2,15,2,019,136,136.007,136.016,140.530,2,0.541
4,2,16,2,042,148,148.000,148.016,152.547,2,0.340
4,2,17,1,036,158,158.008,158.025,162.556,1,0.380
4,2,18,4,037,166,165.999,166.008,170.523,2,0.426
4,2,19,1,043,176,176.008,176.017,180.548,1,0.376
4,2,20,1,006,184,184.008,184.017,188.532,1,0.387
4,2,21,2,035,194,194.007,194.026,198.541,2,1.056
4,2,22,4,029,206,206.008,206.026,210.558,2,0.588
4,2,23,3,010,214,214.000,214.010,218.541,2,0.747
4,2,24,3,016,226,226.007,226.010,230.542,2,0.950
4,2,25,3,041,236,236.007,236.019,240.550,3,0.727
4,2,26,3,045,244,244.007,244.019,248.551,3,0.854
4,2,27,2,026,252,252.007,252.020,256.551,1,0.864
4,2,28,1,015,260,260.007,260.020,264.551,1,0.475
4,2,29,1,012,272,272.008,272.020,276.551,1,0.451
4,2,30,2,038,280,280.008,280.020,284.552,3,0.786
4,2,31,4,044,290,290.007,290.013,294.544,1,0.654
4,2,32,4,031,298,298.008,298.013,302.544,2,0.358
4,2,33,1,014,310,310.007,310.014,314.544,1,0.421
4,2,34,1,030,322,322.008,322.014,326.545,1,0.354
4,2,35,2,003,334,334.007,334.014,338.545,3,0.646
4,2,36,4,009,346,346.015,346.031,350.562,1,0.645
4,2,37,3,021,356,356.007,356.023,360.554,3,0.981
4,2,38,2,011,368,368.008,368.023,372.555,1,0.576
4,2,39,2,027,378,378.015,378.032,382.563,3,0.490
4,2,40,4,013,390,390.015,390.032,394.564,1,0.475
4,2,41,3,020,402,402.008,402.016,406.548,2,0.427
4,2,42,1,002,410,410.015,410.033,414.548,1,0.870
4,2,43,1,025,422,422.015,422.034,426.565,1,0.274
4,2,44,3,007,434,434.007,434.017,438.549,2,0.999
4,2,45,4,028,446,446.015,446.018,450.549,2,0.737
4,2,46,3,033,458,458.016,458.035,462.566,3,0.377
4,2,47,4,023,466,466.007,466.018,470.550,2,0.541
4,2,48,2,005,476,476.015,476.027,480.558,1,0.543
4,3,01,2,009,004,4.000,4.009,8.541,1,0.372
4,3,02,4,038,014,14.000,14.018,18.549,2,0.528
4,3,03,3,036,024,24.008,24.027,28.558,2,0.689
4,3,04,1,021,032,32.000,32.010,36.541,2,0.563
4,3,05,1,018,040,40.008,40.027,44.542,1,0.467
4,3,06,3,025,052,52.001,52.011,56.543,3,1.037
4,3,07,2,034,064,64.009,64.012,68.543,3,0.626
4,3,08,3,030,072,72.008,72.011,76.543,3,0.720
4,3,09,3,006,084,84.000,84.012,88.543,3,0.887
4,3,10,2,031,092,92.009,92.012,96.543,2,0.205
4,3,11,4,019,104,104.000,104.013,108.544,1,0.357
4,3,12,2,028,114,114.009,114.021,118.553,2,0.338
4,3,13,4,005,122,122.008,122.022,126.553,2,0.873
4,3,14,1,020,134,134.000,134.005,138.537,1,0.384
4,3,15,4,003,146,146.009,146.022,150.554,3,0.693
4,3,16,2,013,158,158.009,158.023,162.537,2,0.703
4,3,17,1,010,170,170.000,170.007,174.538,1,0.385
4,3,18,3,008,178,178.009,178.023,182.555,2,0.395
4,3,19,4,024,188,188.009,188.015,192.547,2,0.329
4,3,20,1,046,196,196.009,196.017,200.547,2,1.471
4,3,21,4,004,208,208.009,208.016,212.548,2,0.306
4,3,22,3,043,218,218.000,218.008,222.539,2,0.455
4,3,23,2,047,228,228.008,228.017,232.548,1,0.330
4,3,24,1,022,240,240.008,240.017,244.548,1,0.400
4,3,25,1,041,250,250.009,250.026,254.557,1,0.550
4,3,26,4,042,260,260.009,260.018,264.549,2,0.590
4,3,27,2,040,272,272.009,272.018,276.550,2,0.480
4,3,28,1,045,282,282.009,282.027,286.558,1,0.709
4,3,29,2,029,290,290.008,290.011,294.542,2,0.315
4,3,30,3,001,300,300.009,300.019,304.550,2,0.381
4,3,31,1,016,310,310.008,310.011,314.543,1,0.665
4,3,32,3,017,322,322.008,322.012,326.543,2,0.664
4,3,33,4,035,330,330.016,330.029,334.560,3,0.812
4,3,34,1,048,338,338.009,338.012,342.543,1,0.322
4,3,35,1,033,348,348.017,348.021,352.552,1,0.286
4,3,36,4,011,356,356.008,356.021,360.552,2,0.691
4,3,37,3,014,368,368.008,368.022,372.536,2,0.688
4,3,38,3,002,376,376.017,376.022,380.553,3,1.699
4,3,39,3,012,386,386.008,386.014,390.545,3,1.120
4,3,40,1,007,398,398.016,398.031,402.545,1,0.310
4,3,41,4,027,408,408.016,408.023,412.554,1,0.365
4,3,42,2,023,416,416.017,416.023,420.554,1,0.516
4,3,43,2,037,428,428.017,428.024,432.555,2,0.781
4,3,44,2,039,438,438.008,438.016,442.547,2,0.483
4,3,45,4,032,450,450.016,450.033,454.564,1,0.361
4,3,46,3,015,458,458.016,458.033,462.564,2,0.268
4,3,47,2,044,468,468.008,468.025,472.556,3,0.799
4,3,48,4,026,476,476.017,476.025,480.556,2,1.037
4,4,01,4,002,004,4.008,4.019,8.550,1,0.576
4,4,02,1,042,016,16.008,16.019,20.551,1,0.403
4,4,03,1,004,024,24.008,24.020,28.551,1,0.374
4,4,04,1,019,036,36.008,36.020,40.551,1,0.334
4,4,05,2,020,048,48.007,48.020,52.552,2,0.788
4,4,06,1,026,058,58.000,58.013,62.544,1,0.349
4,4,07,2,046,070,70.008,70.013,74.544,3,0.371
4,4,08,4,012,082,82.009,82.013,86.545,1,0.322
4,4,09,1,032,094,94.000,94.014,98.528,1,0.210
4,4,10,3,013,104,104.008,104.022,108.537,2,0.518
4,4,11,4,006,112,112.008,112.023,116.554,2,0.399
4,4,12,2,048,122,122.007,122.015,126.546,1,0.007
4,4,13,3,034,132,132.009,132.023,136.555,1,0.765
4,4,14,2,022,144,143.999,144.008,148.538,2,0.687
4,4,15,4,015,152,152.009,152.024,156.539,1,0.601
4,4,16,1,038,160,160.008,160.024,164.556,2,0.366
4,4,17,2,007,168,168.009,168.025,172.556,2,0.581
4,4,18,3,037,180,180.009,180.025,184.540,2,0.764
4,4,19,4,008,192,192.007,192.025,196.557,2,0.396
4,4,20,3,039,204,204.007,204.026,208.557,2,0.691
4,4,21,3,009,212,212.008,212.026,216.557,2,0.743
4,4,22,2,010,222,222.008,222.018,226.533,2,0.595
4,4,23,3,028,230,230.009,230.018,234.533,4,0.846
4,4,24,4,014,240,240.017,240.027,244.558,1,0.740
4,4,25,3,047,248,248.008,248.011,252.542,2,0.586
4,4,26,1,027,258,258.016,258.019,262.551,2,0.439
4,4,27,2,021,270,270.017,270.020,274.551,2,0.430
4,4,28,3,040,280,280.009,280.012,284.543,3,0.424
4,4,29,2,033,288,288.016,288.029,292.560,2,0.331
4,4,30,2,018,298,298.009,298.021,302.552,2,0.504
4,4,31,3,029,310,310.008,310.021,314.552,2,0.261
4,4,32,2,016,318,318.016,318.021,322.553,2,0.604
4,4,33,1,024,328,328.008,328.013,332.545,2,0.365
4,4,34,1,003,336,336.016,336.030,340.561,2,0.364
4,4,35,3,023,348,348.017,348.031,352.562,3,0.767
4,4,36,3,044,356,356.016,356.031,360.562,3,0.774
4,4,37,4,025,368,368.016,368.031,372.563,1,0.322
4,4,38,4,030,380,380.008,380.015,384.546,2,0.501
4,4,39,4,001,390,390.016,390.024,394.555,2,0.381
4,4,40,4,036,398,398.008,398.024,402.555,2,0.444
4,4,41,3,031,408,408.016,408.033,412.564,2,0.527
4,4,42,1,035,418,418.015,418.025,422.556,2,0.452
4,4,43,1,005,430,430.008,430.025,434.556,2,0.412
4,4,44,4,043,440,440.016,440.034,444.565,2,0.470
4,4,45,4,017,448,448.017,448.034,452.549,2,0.669
4,4,46,2,045,456,456.017,456.035,460.565,2,0.455
4,4,47,2,041,466,466.016,466.026,470.558,2,0.261
4,4,48,1,011,474,474.015,474.027,478.558,2,0.328
5,1,01,4,044,004,4.009,4.015,8.546,2,1.316
5,1,02,4,003,014,13.999,14.023,18.554,1,0.332
5,1,03,1,013,024,24.008,24.015,28.530,2,0.617
5,1,04,3,023,034,34.008,34.024,38.555,1,1.855
5,1,05,1,032,042,42.008,42.024,46.555,1,0.256
5,1,06,1,019,050,50.008,50.024,54.555,1,0.595
5,1,07,2,016,060,59.999,60.016,64.547,2,1.960
5,1,08,1,011,070,70.008,70.025,74.556,1,0.447
5,1,09,3,017,082,82.008,82.025,86.557,2,1.009
5,1,10,4,002,094,94.008,94.026,98.557,3,2.328
5,1,11,3,041,102,102.009,102.026,106.557,1,0.260
5,1,12,2,031,112,112.008,112.018,116.549,2,0.375
5,1,13,3,033,122,122.008,122.027,126.558,1,1.426
5,1,14,2,042,130,130.008,130.027,134.558,2,1.450
5,1,15,4,012,138,138.009,138.027,142.542,1,1.434
5,1,16,4,027,146,146.008,146.011,150.542,1,0.690
5,1,17,1,036,158,158.016,158.028,162.559,1,1.816
5,1,18,3,005,166,166.008,166.012,170.543,2,2.393
5,1,19,2,037,178,178.009,178.012,182.543,2,1.528
5,1,20,4,007,190,190.016,190.029,194.560,2,2.175
5,1,21,1,030,198,198.008,198.013,202.544,1,1.184
5,1,22,2,026,210,210.016,210.030,214.561,1,1.084
5,1,23,3,001,222,222.016,222.030,226.561,2,1.281
5,1,24,2,006,232,232.016,232.022,236.537,1,0.887
5,1,25,2,008,240,240.017,240.022,244.554,2,2.153
5,1,26,4,022,248,248.008,248.023,252.554,1,0.832
5,1,27,2,020,260,260.016,260.023,264.554,3,0.564
5,1,28,3,035,270,270.017,270.032,274.563,2,2.426
5,1,29,1,021,282,282.008,282.015,286.547,1,0.133
5,1,30,3,045,292,292.016,292.024,296.555,2,1.247
5,1,31,3,043,304,304.016,304.024,308.556,2,0.852
5,1,32,2,024,314,314.009,314.016,318.548,3,1.765
5,1,33,4,028,324,324.015,324.025,328.540,2,2.287
5,1,34,2,014,332,332.008,332.025,336.557,2,0.452
5,1,35,2,046,340,340.016,340.026,344.557,2,0.705
5,1,36,3,039,348,348.007,348.026,352.541,1,1.633
5,1,37,1,025,360,360.016,360.026,364.541,1,0.280
5,1,38,2,015,372,372.016,372.027,376.558,2,0.336
5,1,39,4,038,384,384.016,384.027,388.558,3,1.548
5,1,40,1,018,392,392.016,392.027,396.559,2,0.700
5,1,41,1,009,402,402.016,402.019,406.551,1,0.901
5,1,42,4,047,414,414.016,414.020,418.551,2,0.697
5,1,43,1,040,424,424.016,424.028,428.560,1,0.007
5,1,44,3,010,436,436.017,436.029,440.560,2,1.300
5,1,45,1,029,448,448.016,448.029,452.561,1,0.983
5,1,46,4,048,458,458.015,458.021,462.536,2,0.920
5,1,47,3,004,466,466.017,466.022,470.553,2,0.503
5,1,48,4,034,476,476.024,476.030,480.545,1,0.247
5,2,01,4,031,004,3.992,4.003,8.534,2,0.211
5,2,02,3,021,016,16.000,16.003,20.534,1,0.854
5,2,03,1,035,028,27.999,28.004,32.535,2,0.818
5,2,04,2,034,036,36.000,36.004,40.518,2,0.851
5,2,05,3,011,048,48.000,48.004,52.519,2,1.189
5,2,06,2,002,060,59.999,60.005,64.536,3,2.105
5,2,07,3,019,068,68.000,68.005,72.536,2,2.458
5,2,08,3,025,076,76.000,76.005,80.536,2,1.849
5,2,09,2,022,084,84.000,84.005,88.537,1,1.375
5,2,10,4,015,092,91.999,92.006,96.520,1,1.465
5,2,11,1,039,100,100.000,100.006,104.537,1,0.908
5,2,12,4,016,110,110.000,110.015,114.529,2,2.055
5,2,13,1,005,118,117.999,118.015,122.546,3,2.840
5,2,14,2,027,130,129.999,130.015,134.546,2,0.544
5,2,15,4,026,140,140.000,140.007,144.522,2,0.595
5,2,16,1,033,152,152.000,152.008,156.539,2,0.736
5,2,17,3,036,162,162.000,162.016,166.548,2,1.576
5,2,18,2,007,170,170.007,170.017,174.548,2,1.844
5,2,19,3,029,182,181.999,182.017,186.548,1,0.416
5,2,20,4,042,190,189.999,190.017,194.548,2,0.537
5,2,21,1,004,202,202.008,202.018,206.532,1,0.290
5,2,22,4,020,214,214.008,214.018,218.533,1,1.578
5,2,23,1,041,224,223.999,224.010,228.541,1,0.876
5,2,24,2,003,236,236.008,236.011,240.542,3,2.041
5,2,25,3,030,244,244.000,244.011,248.542,2,2.016
5,2,26,1,001,254,254.008,254.019,258.551,2,1.904
5,2,27,2,044,264,264.007,264.012,268.543,2,1.502
5,2,28,2,048,272,272.007,272.012,276.543,3,1.579
5,2,29,1,010,282,282.008,282.020,286.552,1,2.454
5,2,30,1,017,290,289.999,290.004,294.519,1,0.964
5,2,31,3,013,300,300.008,300.013,304.544,1,1.496
5,2,32,4,014,310,310.000,310.005,314.536,2,0.613
5,2,33,3,018,320,320.008,320.013,324.545,1,0.930
5,2,34,4,024,328,328.008,328.014,332.528,3,1.972
5,2,35,1,043,338,338.008,338.022,342.553,1,0.509
5,2,36,2,028,348,348.008,348.014,352.545,2,1.111
5,2,37,4,037,356,356.007,356.014,360.546,1,0.523
5,2,38,1,045,368,368.007,368.015,372.546,1,0.703
5,2,39,2,012,378,378.000,378.007,382.538,3,1.384
5,2,40,1,023,386,386.007,386.024,390.555,2,1.186
5,2,41,2,038,396,396.008,396.016,400.547,2,0.842
5,2,42,2,047,408,407.999,408.016,412.547,4,1.983
5,2,43,4,006,420,420.008,420.017,424.548,1,0.007
5,2,44,4,008,430,430.008,430.025,434.540,2,1.973
5,2,45,3,040,438,438.008,438.026,442.557,1,1.024
5,2,46,3,009,448,448.008,448.018,452.549,2,0.007
5,2,47,3,032,460,460.007,460.018,464.533,3,1.757
5,2,48,4,046,472,472.007,472.018,476.550,1,0.417
5,3,01,3,037,004,3.999,4.003,8.534,1,0.244
5,3,02,4,035,012,11.993,12.003,16.517,3,1.610
5,3,03,1,044,022,22.000,22.011,26.543,1,0.007
5,3,04,1,022,034,34.000,34.012,38.543,1,0.698
5,3,05,4,039,044,43.992,44.004,48.535,1,0.968
5,3,06,3,024,056,56.001,56.004,60.535,4,1.367
5,3,07,3,008,068,68.000,68.004,72.536,1,0.251
5,3,08,2,025,076,75.991,76.005,80.536,2,0.007
5,3,09,4,045,084,84.000,84.005,88.536,2,1.393
5,3,10,2,011,094,93.992,93.997,98.528,3,2.608
5,3,11,1,034,102,102.001,102.014,106.545,1,2.366
5,3,12,1,012,110,109.993,109.998,114.529,1,0.360
5,3,13,4,041,122,122.000,122.015,126.529,2,0.565
5,3,14,2,030,134,134.000,134.015,138.530,4,1.671
5,3,15,4,004,146,145.992,145.999,150.530,2,0.683
5,3,16,3,031,156,156.000,156.007,160.522,1,0.444
5,3,17,1,002,166,166.000,166.016,170.547,1,0.848
5,3,18,3,046,178,178.000,178.016,182.548,2,0.574
5,3,19,2,021,190,190.000,190.017,194.532,3,0.503
5,3,20,4,033,200,199.999,200.009,204.540,2,0.885
5,3,21,2,029,210,210.000,210.018,214.549,3,0.697
5,3,22,2,018,222,222.000,222.019,226.549,4,2.132
5,3,23,3,020,234,234.000,234.018,238.550,1,0.261
5,3,24,1,038,244,243.999,244.010,248.542,2,1.617
5,3,25,2,040,256,256.000,256.011,260.542,3,0.923
5,3,26,2,009,264,264.001,264.011,268.542,2,0.675
5,3,27,1,047,274,274.008,274.020,278.551,3,1.269
5,3,28,2,013,284,284.000,284.012,288.543,2,0.975
5,3,29,2,032,292,292.000,292.012,296.543,2,1.154
5,3,30,4,043,302,302.008,302.021,306.552,3,2.380
5,3,31,1,028,314,314.000,314.004,318.519,1,1.042
5,3,32,4,001,322,322.008,322.021,326.553,3,1.879
5,3,33,1,048,330,330.000,330.005,334.536,1,0.449
5,3,34,2,019,340,340.007,340.014,344.545,3,0.531
5,3,35,3,014,350,350.008,350.022,354.554,1,0.007
5,3,36,3,042,360,360.001,360.014,364.546,1,0.717
5,3,37,1,007,368,368.009,368.015,372.529,1,0.422
5,3,38,4,023,380,380.000,380.015,384.546,2,0.518
5,3,39,3,006,388,388.008,388.015,392.547,1,0.388
5,3,40,4,017,398,398.008,398.024,402.555,2,0.349
5,3,41,3,016,406,406.009,406.024,410.539,1,0.787
5,3,42,3,015,414,414.000,414.008,418.539,1,0.560
5,3,43,3,026,422,422.008,422.025,426.556,3,2.599
5,3,44,1,027,434,434.008,434.025,438.556,2,1.773
5,3,45,4,005,442,442.008,442.025,446.557,1,1.040
5,3,46,4,010,454,454.008,454.026,458.557,1,0.298
5,3,47,1,003,466,466.009,466.026,470.557,2,0.819
5,3,48,2,036,474,474.008,474.026,478.541,2,1.841
5,4,01,4,040,004,4.000,4.015,8.529,2,1.622
5,4,02,3,034,014,14.008,14.023,18.555,4,2.308
5,4,03,1,015,026,26.008,26.024,30.555,1,0.019
5,4,04,1,046,036,36.000,36.016,40.531,2,1.384
5,4,05,2,039,048,48.009,48.016,52.548,3,2.220
5,4,06,1,026,058,58.008,58.025,62.540,3,1.867
5,4,07,3,007,070,70.000,70.009,74.540,2,1.690
5,4,08,4,032,080,80.008,80.017,84.549,3,1.978
5,4,09,1,031,092,92.008,92.018,96.549,1,0.910
5,4,10,4,011,104,104.000,104.018,108.549,0,0.000
5,4,11,2,033,112,112.008,112.018,116.550,3,0.688
5,4,12,4,019,124,124.008,124.019,128.533,4,2.118
5,4,13,2,004,134,134.008,134.012,138.542,3,1.870
5,4,14,4,036,142,142.008,142.011,146.542,1,0.367
5,4,15,2,005,152,152.008,152.020,156.534,3,1.382
5,4,16,3,022,162,162.008,162.013,166.543,1,1.318
5,4,17,4,018,170,170.000,170.012,174.527,2,0.092
5,4,18,3,028,180,180.008,180.021,184.552,1,0.007
5,4,19,1,020,188,188.008,188.021,192.552,1,0.429
5,4,20,1,042,200,200.008,200.021,204.553,1,0.246
5,4,21,2,043,210,210.008,210.013,214.545,4,2.329
5,4,22,2,035,222,222.008,222.014,226.545,2,0.564
5,4,23,3,027,230,230.009,230.014,234.545,2,1.322
5,4,24,3,038,238,238.008,238.014,242.529,2,0.467
5,4,25,2,017,248,248.008,248.023,252.538,3,0.251
5,4,26,4,009,258,258.008,258.015,262.546,1,0.620
5,4,27,3,048,266,266.008,266.015,270.547,1,0.497
5,4,28,4,013,276,276.008,276.024,280.555,1,0.874
5,4,29,3,044,284,284.017,284.024,288.555,1,0.538
5,4,30,3,003,296,296.008,296.025,300.556,1,0.475
5,4,31,4,025,304,304.008,304.025,308.556,2,0.304
5,4,32,2,041,316,316.016,316.025,320.557,2,0.358
5,4,33,3,012,328,328.016,328.026,332.557,2,0.007
5,4,34,1,024,336,336.016,336.026,340.541,3,0.700
5,4,35,4,030,348,348.016,348.026,352.558,4,2.474
5,4,36,4,029,356,356.009,356.027,360.558,2,0.727
5,4,37,4,021,366,366.016,366.019,370.550,1,0.242
5,4,38,1,037,376,376.008,376.011,380.542,1,0.452
5,4,39,2,010,384,384.016,384.028,388.559,2,0.132
5,4,40,2,023,396,396.016,396.028,400.559,4,2.087
5,4,41,2,045,404,404.016,404.028,408.559,2,0.616
5,4,42,3,002,414,414.016,414.020,418.552,1,1.010
5,4,43,1,016,422,422.008,422.021,426.535,2,0.332
5,4,44,1,006,430,430.017,430.021,434.535,1,0.023
5,4,45,1,008,442,442.008,442.021,446.552,2,0.838
5,4,46,2,001,450,450.017,450.021,454.553,4,2.232
5,4,47,1,014,460,460.016,460.030,464.561,1,0.140
5,4,48,3,047,472,472.008,472.014,476.529,3,1.071
6,1,01,4,048,004,4.001,4.016,8.531,2,0.574
6,1,02,1,006,012,11.999,12.016,16.548,3,0.584
6,1,03,2,021,024,23.991,24.000,28.532,2,1.005
6,1,04,3,027,036,36.001,36.017,40.549,1,0.543
6,1,05,4,011,044,44.000,44.018,48.549,1,0.617
6,1,06,3,005,056,56.001,56.018,60.549,1,0.452
6,1,07,2,045,064,64.000,64.018,68.549,1,0.605
6,1,08,2,036,076,76.001,76.019,80.550,1,0.399
6,1,09,2,041,086,86.001,86.011,90.542,2,0.567
6,1,10,4,022,096,96.001,96.019,100.551,1,0.230
6,1,11,2,015,104,103.999,104.003,108.534,1,0.312
6,1,12,3,018,114,114.001,114.012,118.543,1,0.586
6,1,13,3,016,122,122.007,122.013,126.543,1,0.938
6,1,14,4,033,130,130.001,130.012,134.543,1,0.007
6,1,15,1,012,138,138.007,138.013,142.544,1,0.583
6,1,16,1,024,148,148.001,148.004,152.536,1,0.707
6,1,17,4,031,158,157.999,158.013,162.544,1,0.451
6,1,18,3,019,168,168.009,168.022,172.536,1,0.505
6,1,19,4,010,180,180.001,180.006,184.537,1,0.294
6,1,20,2,008,190,190.000,190.014,194.545,1,0.288
6,1,21,1,044,202,202.009,202.015,206.546,4,0.523
6,1,22,3,028,214,214.007,214.016,218.546,1,0.908
6,1,23,1,014,222,222.008,222.015,226.546,1,0.585
6,1,24,1,047,234,234.009,234.016,238.547,1,0.453
6,1,25,3,003,242,242.001,242.016,246.547,1,0.496
6,1,26,1,023,254,254.009,254.016,258.531,1,0.395
6,1,27,4,037,262,262.008,262.017,266.548,3,0.380
6,1,28,2,004,274,274.001,274.017,278.548,1,0.426
6,1,29,4,025,286,286.008,286.017,290.549,1,0.620
6,1,30,1,035,294,294.000,294.018,298.549,1,0.781
6,1,31,4,020,304,304.009,304.026,308.558,1,0.511
6,1,32,2,013,316,316.007,316.010,320.541,2,0.376
6,1,33,3,040,324,324.000,324.010,328.542,3,0.250
6,1,34,3,042,332,332.008,332.011,336.542,1,0.324
6,1,35,4,029,344,344.000,344.011,348.526,2,0.616
6,1,36,2,032,352,352.008,352.011,356.543,1,0.377
6,1,37,2,038,362,362.009,362.020,366.551,2,0.365
6,1,38,4,002,374,374.007,374.020,378.552,1,0.541
6,1,39,1,017,384,384.007,384.012,388.544,1,0.393
6,1,40,3,046,394,394.008,394.021,398.552,3,0.436
6,1,41,2,034,402,402.008,402.021,406.553,2,0.382
6,1,42,3,007,412,412.009,412.013,416.545,1,0.322
6,1,43,2,030,422,422.008,422.022,426.537,2,0.056
6,1,44,1,039,434,434.007,434.022,438.554,4,0.575
6,1,45,3,026,446,446.008,446.023,450.554,1,0.406
6,1,46,1,009,456,456.016,456.031,460.563,3,1.325
6,1,47,4,043,464,464.009,464.016,468.546,1,0.806
6,1,48,1,001,474,474.017,474.024,478.538,2,0.420
6,2,01,3,017,004,4.000,4.005,8.536,1,0.608
6,2,02,2,043,014,14.009,14.014,18.528,1,0.569
6,2,03,1,003,022,22.001,22.014,26.545,2,0.446
6,2,04,4,015,034,34.001,34.014,38.546,4,0.461
6,2,05,2,029,044,44.008,44.023,48.554,1,0.406
6,2,06,4,041,052,52.001,52.007,56.538,1,0.298
6,2,07,1,027,064,64.009,64.024,68.555,2,0.634
6,2,08,3,014,072,72.008,72.024,76.555,1,0.292
6,2,09,4,036,080,80.009,80.024,84.555,2,0.823
6,2,10,4,030,090,90.009,90.016,94.531,1,0.978
6,2,11,4,008,102,102.001,102.017,106.548,1,0.560
6,2,12,3,006,110,110.008,110.017,114.548,1,0.478
6,2,13,3,001,120,120.009,120.026,124.557,1,0.311
6,2,14,1,018,128,128.009,128.027,132.557,1,0.525
6,2,15,2,002,140,140.009,140.026,144.557,3,1.054
6,2,16,3,039,150,150.001,150.018,154.549,1,0.494
6,2,17,1,007,158,158.008,158.018,162.550,1,0.434
6,2,18,2,025,166,166.000,166.019,170.550,2,0.381
6,2,19,3,044,176,176.009,176.027,180.542,1,0.284
6,2,20,1,046,188,188.008,188.011,192.526,3,0.316
6,2,21,2,022,200,200.001,200.012,204.543,1,0.641
6,2,22,2,048,210,210.009,210.020,214.551,1,0.424
6,2,23,4,004,218,218.000,218.004,222.535,2,0.701
6,2,24,1,016,230,230.008,230.021,234.552,1,0.565
6,2,25,4,038,238,238.008,238.021,242.536,1,0.516
6,2,26,2,037,248,248.009,248.013,252.544,3,0.665
6,2,27,1,005,258,258.009,258.022,262.536,1,0.716
6,2,28,1,019,268,268.008,268.014,272.545,2,0.354
6,2,29,3,035,276,276.009,276.014,280.529,2,1.119
6,2,30,4,034,288,288.010,288.015,292.546,3,1.454
6,2,31,4,045,298,298.008,298.023,302.538,1,0.267
6,2,32,1,028,308,308.009,308.015,312.530,1,0.814
6,2,33,2,010,320,320.009,320.016,324.547,2,2.339
6,2,34,4,032,332,332.017,332.033,336.564,2,0.624
6,2,35,2,020,344,344.009,344.016,348.548,2,0.751
6,2,36,2,033,352,352.009,352.017,356.548,1,0.850
6,2,37,3,009,364,364.017,364.034,368.565,2,0.425
6,2,38,3,012,376,376.016,376.034,380.549,3,0.544
6,2,39,1,026,384,384.008,384.018,388.549,1,0.627
6,2,40,4,021,394,394.017,394.026,398.558,1,0.652
6,2,41,1,040,404,404.009,404.018,408.550,1,0.312
6,2,42,2,031,412,412.017,412.035,416.567,2,0.394
6,2,43,4,013,422,422.016,422.027,426.559,2,1.236
6,2,44,3,023,434,434.009,434.011,438.542,1,0.833
6,2,45,3,047,442,442.016,442.028,446.559,0,0.000
6,2,46,3,024,454,454.008,454.012,458.543,1,0.465
6,2,47,1,042,466,466.017,466.029,470.560,2,0.472
6,2,48,2,011,474,474.017,474.029,478.544,1,0.940
6,3,01,2,014,004,4.000,4.012,8.543,3,0.644
6,3,02,2,047,016,15.999,16.012,20.543,1,0.279
6,3,03,3,036,024,23.992,23.996,28.527,1,0.345
6,3,04,3,008,032,31.999,32.013,36.544,1,0.408
6,3,05,2,024,042,41.991,42.005,46.536,1,0.259
6,3,06,4,046,054,54.000,54.006,58.536,4,0.414
6,3,07,4,019,066,65.999,66.005,70.537,1,0.958
6,3,08,2,001,076,76.000,76.014,80.545,3,1.040
6,3,09,3,034,088,87.999,88.014,92.546,2,0.287
6,3,10,1,002,100,100.000,100.015,104.546,3,0.652
6,3,11,1,029,110,109.999,110.007,114.538,2,0.280
6,3,12,1,011,118,117.999,118.008,122.538,1,0.454
6,3,13,4,028,130,129.999,130.008,134.539,1,0.338
6,3,14,4,027,138,137.999,138.008,142.522,2,0.514
6,3,15,2,006,148,147.999,148.016,152.531,2,0.247
6,3,16,1,037,160,159.998,160.017,164.548,2,0.431
6,3,17,3,030,170,170.006,170.025,174.540,2,0.418
6,3,18,3,021,182,181.999,182.009,186.541,2,0.427
6,3,19,4,040,192,191.999,192.001,196.533,2,0.645
6,3,20,3,015,200,200.007,200.018,204.549,1,0.195
6,3,21,1,031,208,207.999,208.002,212.533,1,0.343
6,3,22,1,022,220,220.007,220.019,224.550,1,0.695
6,3,23,2,035,228,227.998,228.003,232.534,4,0.559
6,3,24,4,005,238,238.008,238.011,242.542,3,0.964
6,3,25,2,009,248,248.007,248.020,252.551,2,0.245
6,3,26,1,010,258,257.999,258.012,262.543,3,0.317
6,3,27,1,020,266,266.008,266.012,270.543,1,0.266
6,3,28,2,012,278,278.007,278.013,282.544,4,0.580
6,3,29,3,038,288,288.007,288.021,292.552,1,0.334
6,3,30,3,045,298,298.008,298.013,302.544,1,0.264
6,3,31,4,026,308,307.999,308.005,312.536,1,0.302
6,3,32,4,016,316,316.006,316.022,320.553,1,0.707
6,3,33,3,013,328,328.000,328.006,332.537,1,0.295
6,3,34,2,023,340,340.007,340.023,344.554,2,0.504
6,3,35,4,007,348,348.007,348.023,352.554,1,0.264
6,3,36,2,017,360,359.999,360.007,364.538,3,0.239
6,3,37,1,025,370,370.007,370.016,374.547,2,1.654
6,3,38,2,039,378,377.999,378.016,382.531,1,0.258
6,3,39,2,044,386,386.007,386.016,390.547,3,1.082
6,3,40,1,048,394,394.008,394.016,398.548,1,0.296
6,3,41,4,042,402,402.008,402.017,406.548,2,2.034
6,3,42,3,032,410,410.006,410.017,414.548,2,0.598
6,3,43,4,018,420,420.007,420.026,424.557,1,0.212
6,3,44,1,043,432,432.007,432.026,436.557,1,0.220
6,3,45,4,003,444,444.008,444.026,448.558,1,0.292
6,3,46,3,041,456,456.007,456.010,460.541,1,0.840
6,3,47,1,033,466,466.007,466.019,470.533,3,0.956
6,3,48,3,004,476,476.007,476.011,480.542,2,0.443
6,4,01,3,002,004,4.001,4.008,8.540,3,0.268
6,4,02,3,020,014,14.008,14.017,18.532,1,0.055
6,4,03,4,035,026,26.008,26.018,30.549,1,0.265
6,4,04,4,017,034,34.007,34.018,38.549,2,0.329
6,4,05,2,005,046,46.008,46.018,50.549,2,0.216
6,4,06,4,024,056,56.000,56.010,60.542,1,0.403
6,4,07,2,027,068,68.008,68.011,72.525,3,0.336
6,4,08,1,036,080,80.008,80.011,84.542,1,0.221
6,4,09,2,016,090,90.008,90.020,94.551,4,0.255
6,4,10,2,007,102,102.007,102.020,106.535,3,0.287
6,4,11,3,033,112,112.007,112.013,116.543,1,1.576
6,4,12,4,001,124,124.008,124.013,128.544,1,0.244
6,4,13,2,018,132,132.008,132.014,136.544,2,0.100
6,4,14,4,009,140,140.007,140.013,144.544,3,0.635
6,4,15,1,030,150,150.007,150.022,154.553,1,0.651
6,4,16,1,045,158,158.007,158.022,162.553,1,0.198
6,4,17,3,029,170,170.008,170.022,174.537,2,0.435
6,4,18,4,006,182,182.009,182.023,186.537,1,0.413
6,4,19,3,025,194,194.007,194.023,198.554,3,0.352
6,4,20,1,021,206,206.007,206.024,210.555,2,0.399
6,4,21,1,015,216,216.009,216.016,220.547,2,0.275
6,4,22,3,011,224,224.009,224.016,228.547,1,0.504
6,4,23,2,040,236,236.015,236.033,240.564,3,1.013
6,4,24,1,032,246,246.009,246.025,250.556,2,0.347
6,4,25,3,022,256,256.007,256.017,260.548,2,1.075
6,4,26,4,023,266,266.016,266.026,270.557,0,0.000
6,4,27,2,026,276,276.007,276.018,280.549,2,0.396
6,4,28,3,043,286,286.016,286.026,290.558,2,1.341
6,4,29,2,028,296,296.015,296.018,300.550,1,1.065
6,4,30,2,003,304,304.015,304.019,308.550,1,0.256
6,4,31,1,034,312,312.016,312.019,316.550,2,0.281
6,4,32,1,038,320,320.016,320.019,324.550,2,0.207
6,4,33,2,046,328,328.015,328.019,332.534,4,0.273
6,4,34,1,004,338,338.009,338.011,342.526,2,0.590
6,4,35,1,013,350,350.016,350.028,354.543,1,0.287
6,4,36,4,039,358,358.015,358.029,362.560,1,0.252
6,4,37,4,047,370,370.015,370.029,374.560,1,0.457
6,4,38,1,008,382,382.016,382.030,386.561,1,0.240
6,4,39,4,014,392,392.015,392.021,396.553,2,2.910
6,4,40,2,019,402,402.016,402.030,406.545,1,0.336
6,4,41,4,012,410,410.017,410.030,414.545,1,0.260
6,4,42,3,010,418,418.015,418.031,422.562,2,0.198
6,4,43,1,041,426,426.015,426.031,430.562,1,0.379
6,4,44,2,042,434,434.016,434.031,438.563,2,0.256
6,4,45,4,044,444,444.015,444.024,448.555,3,1.386
6,4,46,3,048,456,456.007,456.024,460.555,1,0.326
6,4,47,3,037,464,464.015,464.024,468.555,3,0.965
6,4,48,3,031,472,472.016,472.024,476.539,1,0.258
7,1,01,1,011,004,4.008,4.016,8.548,1,0.518
7,1,02,4,041,012,12.002,12.017,16.548,3,0.368
7,1,03,1,016,020,20.009,20.017,24.532,1,0.299
7,1,04,1,044,032,32.000,32.017,36.532,1,0.410
7,1,05,1,018,044,44.008,44.018,48.549,2,0.352
7,1,06,2,021,052,52.009,52.018,56.549,1,0.355
7,1,07,2,037,064,64.000,64.018,68.550,1,0.414
7,1,08,2,002,074,74.009,74.011,78.525,1,0.502
7,1,09,3,012,082,82.001,82.011,86.542,1,0.637
7,1,10,2,006,094,94.009,94.028,98.559,1,0.457
7,1,11,4,035,106,106.009,106.028,110.559,1,0.503
7,1,12,1,025,114,114.001,114.012,118.543,1,0.418
7,1,13,4,013,126,126.008,126.012,130.543,1,0.318
7,1,14,2,017,138,138.009,138.013,142.544,1,0.439
7,1,15,3,015,146,146.009,146.013,150.544,2,0.631
7,1,16,3,034,156,156.009,156.021,160.553,1,0.338
7,1,17,1,039,166,166.009,166.014,170.528,1,0.247
7,1,18,4,027,178,178.009,178.014,182.545,1,0.294
7,1,19,4,031,190,190.008,190.014,194.529,1,0.414
7,1,20,4,009,200,200.009,200.023,204.554,1,0.291
7,1,21,3,019,210,210.017,210.032,214.563,1,0.632
7,1,22,3,030,222,222.008,222.015,226.547,1,0.617
7,1,23,2,045,232,232.009,232.024,236.555,1,0.384
7,1,24,3,003,244,244.017,244.025,248.556,1,0.405
7,1,25,2,001,252,252.009,252.025,256.539,1,0.674
7,1,26,1,048,262,262.017,262.033,266.548,1,0.232
7,1,27,4,005,272,272.017,272.025,276.557,1,0.355
7,1,28,2,032,282,282.008,282.017,286.549,1,0.353
7,1,29,2,026,292,292.017,292.026,296.557,1,0.306
7,1,30,1,040,304,304.017,304.026,308.558,1,0.421
7,1,31,3,008,316,316.008,316.011,320.542,1,0.376
7,1,32,2,010,324,324.017,324.027,328.558,3,0.981
7,1,33,3,024,332,332.009,332.027,336.559,1,0.523
7,1,34,3,014,342,342.017,342.020,346.534,1,0.662
7,1,35,4,047,352,352.009,352.028,356.559,1,0.456
7,1,36,3,004,364,364.018,364.028,368.560,1,0.314
7,1,37,4,020,374,374.017,374.021,378.552,1,0.518
7,1,38,3,043,384,384.009,384.013,388.544,2,0.898
7,1,39,1,036,394,394.017,394.021,398.553,1,0.300
7,1,40,2,046,406,406.017,406.022,410.536,1,0.234
7,1,41,4,007,414,414.018,414.023,418.553,1,0.500
7,1,42,1,038,422,422.016,422.022,426.553,1,0.409
7,1,43,4,033,430,430.017,430.022,434.554,3,0.332
7,1,44,3,029,438,438.016,438.023,442.554,1,0.243
7,1,45,4,023,446,446.017,446.024,450.554,1,0.692
7,1,46,1,042,458,458.016,458.023,462.555,1,0.198
7,1,47,2,022,466,466.016,466.024,470.555,4,0.803
7,1,48,1,028,474,474.016,474.024,478.555,1,0.314
7,2,01,3,037,004,4.008,4.014,8.546,2,0.629
7,2,02,2,025,012,12.007,12.015,16.546,2,0.463
7,2,03,3,002,020,20.007,20.015,24.546,3,0.296
7,2,04,1,027,030,30.007,30.023,34.538,1,0.588
7,2,05,4,030,040,39.999,40.015,44.547,3,0.372
7,2,06,1,041,052,52.007,52.016,56.547,1,0.306
7,2,07,4,014,060,60.008,60.016,64.547,1,0.256
7,2,08,3,026,072,72.000,72.017,76.548,1,0.249
7,2,09,2,039,084,84.008,84.017,88.548,1,0.594
7,2,10,2,011,094,94.008,94.010,98.540,1,0.224
7,2,11,3,001,106,105.999,106.009,110.541,1,0.292
7,2,12,4,008,116,116.007,116.018,120.533,1,0.431
7,2,13,1,009,126,126.007,126.010,130.541,1,0.539
7,2,14,3,022,136,136.008,136.019,140.550,3,0.308
7,2,15,2,044,144,144.007,144.019,148.534,1,0.491
7,2,16,4,012,152,152.008,152.019,156.551,1,0.471
7,2,17,1,033,160,160.008,160.020,164.551,3,0.680
7,2,18,2,036,170,170.008,170.012,174.543,1,0.007
7,2,19,3,021,178,178.008,178.012,182.543,1,0.223
7,2,20,1,047,190,190.008,190.013,194.543,1,0.285
7,2,21,4,019,200,200.008,200.021,204.552,1,0.383
7,2,22,4,003,212,212.007,212.021,216.553,1,0.433
7,2,23,1,035,222,222.015,222.030,226.561,1,0.260
7,2,24,2,038,234,234.015,234.030,238.545,1,0.202
7,2,25,4,034,246,246.007,246.014,250.545,1,0.283
7,2,26,2,040,254,254.016,254.031,258.562,1,0.362
7,2,27,4,015,266,266.016,266.031,270.563,1,0.356
7,2,28,3,006,276,276.007,276.023,280.555,3,0.496
7,2,29,1,007,288,288.016,288.024,292.555,4,0.287
7,2,30,4,043,298,298.016,298.033,302.564,4,0.413
7,2,31,2,042,310,310.007,310.016,314.548,1,0.465
7,2,32,3,010,318,318.016,318.033,322.564,1,0.244
7,2,33,3,032,328,328.015,328.025,332.540,1,0.405
7,2,34,1,013,336,336.015,336.025,340.557,1,0.257
7,2,35,2,018,348,348.015,348.026,352.557,1,0.659
7,2,36,4,029,360,360.008,360.026,364.557,1,0.252
7,2,37,1,031,368,368.016,368.026,372.558,4,0.242
7,2,38,4,024,376,376.007,376.010,380.541,1,0.036
7,2,39,4,004,384,384.016,384.027,388.542,1,0.339
7,2,40,1,005,396,396.016,396.027,400.559,1,0.323
7,2,41,1,020,406,406.016,406.019,410.534,1,0.456
7,2,42,1,023,414,414.016,414.020,418.551,1,0.218
7,2,43,2,016,424,424.016,424.028,428.560,1,0.225
7,2,44,2,048,434,434.015,434.020,438.552,1,0.052
7,2,45,3,045,446,446.015,446.021,450.552,1,0.499
7,2,46,3,017,456,456.016,456.029,460.561,1,0.547
7,2,47,2,028,464,464.016,464.030,468.561,4,0.773
7,2,48,3,046,476,476.015,476.030,480.561,4,0.764
7,3,01,3,025,004,3.999,4.010,8.524,2,0.504
7,3,02,2,007,014,14.000,14.018,18.550,1,0.483
7,3,03,4,022,022,21.999,22.002,26.533,4,0.068
7,3,04,1,043,030,29.992,30.002,34.534,1,0.467
7,3,05,3,040,040,40.000,40.011,44.542,3,0.466
7,3,06,2,013,052,52.000,52.011,56.526,1,0.104
7,3,07,4,010,060,59.999,60.012,64.543,1,0.211
7,3,08,3,011,072,71.999,72.012,76.543,1,0.476
7,3,09,3,038,084,83.999,84.012,88.544,1,1.400
7,3,10,3,018,092,92.000,92.013,96.544,1,0.626
7,3,11,2,020,102,102.001,102.005,106.536,1,0.324
7,3,12,4,026,112,111.991,111.997,116.528,4,0.293
7,3,13,4,037,124,123.999,124.014,128.545,1,0.228
7,3,14,1,003,134,134.001,134.006,138.537,1,0.012
7,3,15,4,006,144,144.001,144.014,148.546,4,0.767
7,3,16,1,004,152,151.999,152.015,156.546,1,0.070
7,3,17,2,035,160,159.999,160.015,164.546,1,0.007
7,3,18,3,048,168,168.001,168.015,172.547,1,0.396
7,3,19,2,005,178,177.999,178.007,182.522,1,0.318
7,3,20,2,023,190,189.999,190.008,194.539,1,0.593
7,3,21,4,046,200,199.999,200.016,204.531,1,0.271
7,3,22,1,008,210,210.007,210.025,214.556,1,0.392
7,3,23,1,030,222,221.999,222.009,226.540,4,0.672
7,3,24,1,014,232,232.001,232.017,236.549,1,0.053
7,3,25,4,021,244,244.008,244.018,248.549,1,0.382
7,3,26,4,002,256,256.008,256.018,260.550,1,0.711
7,3,27,4,001,264,264.000,264.019,268.550,1,0.772
7,3,28,3,036,272,272.009,272.019,276.533,1,0.476
7,3,29,4,045,282,281.999,282.011,286.542,1,0.257
7,3,30,1,024,294,294.008,294.011,298.542,1,0.289
7,3,31,1,029,304,304.008,304.020,308.535,1,0.692
7,3,32,3,039,314,313.999,314.012,318.543,1,0.867
7,3,33,2,027,326,326.009,326.012,330.544,1,0.429
7,3,34,2,047,334,334.000,334.013,338.544,1,0.762
7,3,35,3,042,344,344.007,344.021,348.552,1,0.284
7,3,36,1,034,352,352.000,352.005,356.536,1,0.227
7,3,37,3,016,364,364.000,364.005,368.537,1,0.324
7,3,38,4,017,376,376.008,376.022,380.554,1,0.305
7,3,39,1,015,384,384.008,384.023,388.554,1,0.520
7,3,40,1,012,396,396.008,396.023,400.554,1,0.246
7,3,41,2,033,404,404.008,404.023,408.554,1,0.293
7,3,42,2,009,412,412.008,412.023,416.555,1,0.383
7,3,43,2,041,422,422.007,422.016,426.547,1,0.189
7,3,44,1,019,434,434.008,434.016,438.547,1,0.149
7,3,45,3,044,446,446.007,446.016,450.531,1,0.306
7,3,46,4,032,454,454.007,454.017,458.548,1,0.419
7,3,47,3,028,464,464.008,464.025,468.556,1,0.238
7,3,48,2,031,476,476.009,476.026,480.557,1,0.043
7,4,01,2,004,004,4.000,4.004,8.536,1,0.305
7,4,02,3,047,012,11.994,12.005,16.536,1,0.440
7,4,03,2,019,024,24.000,24.005,28.536,1,0.007
7,4,04,1,002,036,36.001,36.005,40.537,1,0.209
7,4,05,4,028,048,48.001,48.006,52.537,1,0.368
7,4,06,1,022,060,60.000,60.006,64.538,1,0.173
7,4,07,4,025,072,72.001,72.007,76.538,1,0.201
7,4,08,4,011,080,80.001,80.007,84.538,1,0.065
7,4,09,3,027,092,92.001,92.008,96.539,1,0.171
7,4,10,3,020,102,102.001,102.016,106.531,1,0.540
7,4,11,4,036,110,110.001,110.016,114.548,4,0.619
7,4,12,2,043,118,118.000,118.017,122.548,1,0.145
7,4,13,3,035,128,128.000,128.009,132.540,1,0.328
7,4,14,3,007,138,138.009,138.017,142.548,1,0.358
7,4,15,2,015,150,150.001,150.018,154.532,1,0.424
7,4,16,1,001,160,160.001,160.010,164.541,3,0.543
7,4,17,4,044,170,170.008,170.018,174.550,1,0.147
7,4,18,4,042,182,182.001,182.019,186.550,1,0.101
7,4,19,3,041,192,192.008,192.027,196.559,1,0.266
7,4,20,2,003,200,200.008,200.012,204.542,1,0.645
7,4,21,1,045,212,212.000,212.011,216.543,1,0.384
7,4,22,1,037,220,220.009,220.012,224.543,4,0.049
7,4,23,2,029,228,228.000,228.012,232.543,1,0.011
7,4,24,1,046,238,238.008,238.021,242.552,1,0.192
7,4,25,2,014,246,246.001,246.005,250.536,1,0.537
7,4,26,4,048,256,256.009,256.014,260.544,1,0.240
7,4,27,4,016,266,266.009,266.022,270.554,1,0.611
7,4,28,2,012,276,276.009,276.014,280.545,4,0.368
7,4,29,3,005,284,284.009,284.014,288.545,1,0.334
7,4,30,1,032,292,292.008,292.014,296.529,1,0.363
7,4,31,4,039,300,300.009,300.014,304.546,1,0.234
7,4,32,1,010,308,308.009,308.015,312.546,1,0.068
7,4,33,1,026,318,318.009,318.023,322.538,4,0.472
7,4,34,1,017,330,330.001,330.007,334.538,1,0.624
7,4,35,3,033,342,342.008,342.024,346.555,4,0.148
7,4,36,2,008,354,354.009,354.024,358.556,1,0.276
7,4,37,1,006,362,362.000,362.008,366.539,1,0.115
7,4,38,2,024,372,372.009,372.017,376.548,1,0.329
7,4,39,3,023,380,380.009,380.017,384.548,1,0.295
7,4,40,4,040,390,390.008,390.026,394.557,1,0.181
7,4,41,2,034,400,400.008,400.018,404.549,1,0.232
7,4,42,2,030,412,412.008,412.018,416.549,1,0.471
7,4,43,4,018,420,420.008,420.018,424.550,1,0.246
7,4,44,1,021,430,430.009,430.027,434.542,1,0.272
7,4,45,4,038,442,442.009,442.027,446.559,1,1.645
7,4,46,3,009,454,454.009,454.012,458.543,1,0.369
7,4,47,3,031,462,462.008,462.012,466.543,1,0.264
7,4,48,3,013,474,474.016,474.029,478.560,4,0.007
8,1,01,1,039,004,4.008,4.027,8.558,1,0.862
8,1,02,3,031,016,16.008,16.028,20.559,4,1.104
8,1,03,1,035,024,24.000,24.011,28.542,1,0.960
8,1,04,1,012,034,34.008,34.020,38.551,1,0.727
8,1,05,2,045,044,44.008,44.012,48.526,1,1.206
8,1,06,3,016,054,54.008,54.020,58.552,2,1.154
8,1,07,3,021,062,62.007,62.021,66.552,4,0.874
8,1,08,3,017,072,71.999,72.013,76.544,1,0.703
8,1,09,2,043,080,80.008,80.014,84.544,1,0.606
8,1,10,4,032,090,90.000,90.005,94.536,1,0.439
8,1,11,4,010,102,102.007,102.022,106.553,1,0.490
8,1,12,2,018,112,112.008,112.014,116.545,1,0.659
8,1,13,4,041,122,122.000,122.006,126.537,1,0.476
8,1,14,3,025,132,132.008,132.015,136.546,2,1.009
8,1,15,1,027,144,144.007,144.015,148.546,1,0.620
8,1,16,1,015,154,153.999,154.007,158.538,1,0.580
8,1,17,1,034,164,164.007,164.016,168.547,1,0.410
8,1,18,2,033,174,174.008,174.024,178.556,1,0.687
8,1,19,4,040,186,186.007,186.025,190.556,1,0.488
8,1,20,4,037,196,196.008,196.017,200.548,1,0.474
8,1,21,2,024,208,208.008,208.017,212.549,1,0.352
8,1,22,4,046,220,220.007,220.018,224.532,1,0.416
8,1,23,3,036,230,230.008,230.010,234.524,3,0.413
8,1,24,2,038,242,242.007,242.010,246.541,3,1.025
8,1,25,2,029,254,254.007,254.011,258.542,4,0.652
8,1,26,3,048,262,262.007,262.011,266.542,2,0.327
8,1,27,3,004,274,274.007,274.011,278.542,1,0.591
8,1,28,2,003,286,286.007,286.012,290.526,1,0.563
8,1,29,3,011,298,298.015,298.029,302.560,4,0.509
8,1,30,1,047,306,306.007,306.012,310.544,1,0.312
8,1,31,1,006,318,318.015,318.029,322.561,1,0.547
8,1,32,1,028,326,326.007,326.013,330.544,1,0.489
8,1,33,1,013,338,338.007,338.013,342.528,1,0.364
8,1,34,1,005,346,346.016,346.030,350.561,1,0.606
8,1,35,4,008,356,356.008,356.022,360.554,3,0.747
8,1,36,3,014,364,364.016,364.023,368.554,1,0.560
8,1,37,4,026,372,374.015,374.031,378.562,1,0.557
8,1,38,2,022,380,382.017,382.031,386.546,1,0.572
8,1,39,3,023,392,392.015,392.023,396.538,1,0.448
8,1,40,2,001,400,400.015,400.024,404.555,1,1.306
8,1,41,4,019,408,408.016,408.025,412.555,3,0.706
8,1,42,2,020,418,418.016,418.033,422.564,1,0.595
8,1,43,1,042,428,428.015,428.025,432.556,1,0.295
8,1,44,4,002,436,436.007,436.025,440.556,3,0.751
8,1,45,4,044,444,444.015,444.025,448.556,1,0.752
8,1,46,4,009,456,456.008,456.026,460.540,3,1.392
8,1,47,3,030,464,464.016,464.026,468.557,1,0.658
8,1,48,2,007,472,472.008,472.026,476.557,1,0.472
8,2,01,1,045,004,4.009,4.021,8.552,1,0.550
8,2,02,4,013,012,12.009,12.021,16.552,1,0.305
8,2,03,2,014,024,24.009,24.021,28.553,1,0.370
8,2,04,3,026,034,34.009,34.030,38.561,1,0.498
8,2,05,1,022,046,46.008,46.014,50.545,1,0.398
8,2,06,4,047,058,58.009,58.014,62.546,1,0.804
8,2,07,4,034,066,66.008,66.014,70.546,1,0.629
8,2,08,3,041,074,74.010,74.015,78.546,1,0.673
8,2,09,3,044,084,84.008,84.023,88.555,1,0.693
8,2,10,1,018,092,92.009,92.024,96.555,1,0.511
8,2,11,3,010,100,100.009,100.024,104.539,1,0.415
8,2,12,3,019,110,110.009,110.016,114.547,3,1.221
8,2,13,3,040,122,122.008,122.016,126.548,3,0.671
8,2,14,1,007,130,130.017,130.033,134.565,1,0.701
8,2,15,2,036,142,142.017,142.034,146.565,2,0.684
8,2,16,4,027,154,154.010,154.017,158.549,3,0.474
8,2,17,4,005,162,162.017,162.034,166.566,2,0.519
8,2,18,2,017,172,172.018,172.026,176.558,3,0.800
8,2,19,2,011,180,180.017,180.027,184.558,4,0.470
8,2,20,4,035,188,188.017,188.027,192.558,2,0.307
8,2,21,2,016,200,200.008,200.027,204.559,1,0.734
8,2,22,1,029,210,210.017,210.036,214.567,1,0.211
8,2,23,1,003,220,220.010,220.028,224.559,3,0.579
8,2,24,2,025,230,230.018,230.037,234.568,3,0.652
8,2,25,3,009,238,238.017,238.037,242.568,1,0.362
8,2,26,3,037,250,250.009,250.021,254.552,1,0.480
8,2,27,2,023,262,262.017,262.021,266.552,2,0.952
8,2,28,1,038,274,274.017,274.022,278.554,1,0.315
8,2,29,1,001,286,286.008,286.022,290.537,1,0.321
8,2,30,3,008,296,296.017,296.031,300.562,1,0.554
8,2,31,1,024,306,306.016,306.023,310.554,1,0.444
8,2,32,2,048,314,314.010,314.023,318.538,1,0.553
8,2,33,4,039,326,326.017,326.023,330.555,1,0.415
8,2,34,2,031,336,336.017,336.032,340.563,3,0.398
8,2,35,4,015,346,346.016,346.024,350.555,3,0.278
8,2,36,4,042,356,356.016,356.033,360.564,1,0.454
8,2,37,4,006,368,368.016,368.033,372.548,1,0.267
8,2,38,1,043,376,376.018,376.033,380.565,1,0.346
8,2,39,3,046,388,388.018,388.034,392.565,1,0.594
8,2,40,2,004,398,398.017,398.026,402.558,1,0.500
8,2,41,2,021,406,406.017,406.026,410.557,3,0.672
8,2,42,1,020,418,418.016,418.026,422.558,1,0.405
8,2,43,4,028,428,428.017,428.035,432.566,1,0.577
8,2,44,3,032,440,440.016,440.035,444.550,1,0.353
8,2,45,1,033,450,450.016,450.027,454.559,1,0.868
8,2,46,2,030,458,458.016,458.028,462.559,1,0.774
8,2,47,3,002,466,466.018,466.045,470.559,1,0.517
8,2,48,4,012,476,476.024,476.037,480.568,1,0.489
8,3,01,4,021,004,4.001,4.009,8.540,1,0.386
8,3,02,4,036,014,14.000,14.018,18.549,1,0.487
8,3,03,4,023,026,26.000,26.018,30.549,1,0.782
8,3,04,1,026,036,36.000,36.010,40.541,1,0.433
8,3,05,3,018,046,46.000,46.019,50.550,1,0.686
8,3,06,2,013,056,56.009,56.027,60.559,1,0.835
8,3,07,2,034,068,68.000,68.011,72.542,3,0.765
8,3,08,3,007,078,78.001,78.020,82.551,4,1.235
8,3,09,1,008,088,88.009,88.012,92.543,1,0.751
8,3,10,3,022,096,96.001,96.012,100.543,1,0.569
8,3,11,1,010,104,104.009,104.012,108.544,1,0.668
8,3,12,1,032,112,112.000,112.013,116.544,1,0.783
8,3,13,2,005,120,120.009,120.013,124.528,1,0.359
8,3,14,1,041,132,132.010,132.013,136.545,1,0.490
8,3,15,1,009,144,144.001,144.014,148.545,1,0.443
8,3,16,2,027,156,156.009,156.014,160.545,3,0.928
8,3,17,3,043,166,166.009,166.023,170.554,1,0.352
8,3,18,4,031,178,178.000,178.007,182.538,1,0.356
8,3,19,2,006,190,190.008,190.024,194.555,1,0.403
8,3,20,4,025,202,202.010,202.024,206.539,1,0.415
8,3,21,4,016,214,214.001,214.008,218.539,1,0.443
8,3,22,3,001,222,222.010,222.025,226.556,1,0.497
8,3,23,2,047,230,230.009,230.025,234.540,1,0.362
8,3,24,3,020,242,242.008,242.025,246.557,1,0.458
8,3,25,1,002,254,254.008,254.026,258.557,1,0.408
8,3,26,3,029,262,262.001,262.009,266.541,1,0.570
8,3,27,2,039,270,270.008,270.026,274.558,1,0.509
8,3,28,1,046,278,278.001,278.010,282.525,1,0.428
8,3,29,2,012,286,286.008,286.027,290.558,1,0.711
8,3,30,4,011,294,294.000,294.010,298.542,3,0.856
8,3,31,2,035,304,304.009,304.019,308.550,3,0.701
8,3,32,1,019,314,314.009,314.028,318.559,1,0.365
8,3,33,1,037,324,324.009,324.020,328.551,1,0.973
8,3,34,4,048,332,332.008,332.020,336.551,3,0.549
8,3,35,3,038,344,344.009,344.020,348.552,1,0.368
8,3,36,3,003,352,352.009,352.021,356.552,1,0.557
8,3,37,3,024,362,362.009,362.013,366.544,1,0.800
8,3,38,4,014,372,372.008,372.021,376.553,1,0.383
8,3,39,3,045,384,384.008,384.022,388.553,1,0.375
8,3,40,4,017,394,394.009,394.014,398.545,1,0.364
8,3,41,4,030,404,404.017,404.022,408.554,3,0.598
8,3,42,2,028,414,414.008,414.015,418.546,3,0.627
8,3,43,1,040,422,422.016,422.031,426.563,1,0.465
8,3,44,1,044,434,434.016,434.032,438.563,1,0.531
8,3,45,3,033,446,446.009,446.016,450.547,3,0.577
8,3,46,4,004,454,454.017,454.032,458.564,2,0.532
8,3,47,2,015,464,464.010,464.024,468.556,1,0.571
8,3,48,2,042,476,476.016,476.025,480.556,4,0.832
8,4,01,1,016,004,4.001,4.011,8.542,1,0.501
8,4,02,4,029,016,16.008,16.028,20.559,1,0.713
8,4,03,2,044,024,24.009,24.028,28.559,3,0.093
8,4,04,3,012,034,34.000,34.003,38.535,1,0.492
8,4,05,1,025,044,44.008,44.012,48.543,1,0.622
8,4,06,1,011,056,56.009,56.013,60.544,1,0.509
8,4,07,1,014,068,68.000,68.013,72.528,1,0.464
8,4,08,2,040,078,78.009,78.022,82.553,3,0.478
8,4,09,2,009,086,86.008,86.022,90.553,1,0.716
8,4,10,3,035,094,94.009,94.022,98.553,1,0.482
8,4,11,4,033,102,102.009,102.022,106.554,1,0.360
8,4,12,4,020,114,114.009,114.023,118.554,1,0.569
8,4,13,3,005,122,122.009,122.024,126.554,1,0.347
8,4,14,3,047,132,132.008,132.015,136.546,1,0.592
8,4,15,3,013,142,142.008,142.024,146.555,1,0.705
8,4,16,2,002,150,150.016,150.024,154.556,4,0.734
8,4,17,4,018,162,162.010,162.024,166.556,1,0.386
8,4,18,2,041,174,174.008,174.025,178.539,1,0.580
8,4,19,4,003,184,184.009,184.017,188.548,2,0.788
8,4,20,1,017,196,196.017,196.034,200.565,1,0.499
8,4,21,3,039,206,206.009,206.026,210.557,1,1.095
8,4,22,2,019,216,216.016,216.018,220.533,3,0.670
8,4,23,1,031,224,224.009,224.018,228.549,3,0.790
8,4,24,4,038,232,232.016,232.035,236.566,1,0.634
8,4,25,4,024,242,242.017,242.028,246.558,1,0.822
8,4,26,3,028,254,254.009,254.027,258.559,3,0.948
8,4,27,1,023,264,264.017,264.036,268.567,1,0.261
8,4,28,4,045,272,272.008,272.020,276.551,4,0.455
8,4,29,1,048,282,282.017,282.028,286.560,1,0.350
8,4,30,3,042,294,294.017,294.029,298.560,1,0.460
8,4,31,1,004,302,302.008,302.012,306.544,1,0.626
8,4,32,3,015,310,310.016,310.029,314.561,1,0.523
8,4,33,4,043,320,320.009,320.021,324.553,1,0.600
8,4,34,4,022,328,328.017,328.022,332.553,1,0.157
8,4,35,1,021,340,340.009,340.022,344.553,1,0.629
8,4,36,3,006,352,352.008,352.022,356.554,1,0.532
8,4,37,2,046,364,364.017,364.023,368.554,4,0.522
8,4,38,2,008,372,372.009,372.023,376.554,1,0.554
8,4,39,2,010,384,384.016,384.024,388.555,1,0.764
8,4,40,4,007,396,396.017,396.024,400.555,1,0.453
8,4,41,1,030,406,406.016,406.033,410.564,1,0.498
8,4,42,3,027,418,418.016,418.033,422.564,3,0.534
8,4,43,2,032,428,428.017,428.025,432.556,4,0.741
8,4,44,3,034,436,436.017,436.025,440.557,2,0.732
8,4,45,1,036,444,444.017,444.026,448.557,1,0.696
8,4,46,4,001,454,454.017,454.034,458.565,1,0.506
8,4,47,2,037,464,464.017,464.026,468.557,1,0.413
8,4,48,2,026,476,476.016,476.027,480.558,1,0.470
9,1,01,3,036,004,4.007,4.025,8.556,1,0.833
9,1,02,1,027,014,14.007,14.016,18.548,1,0.761
9,1,03,3,016,026,26.008,26.017,30.548,1,0.599
9,1,04,3,014,034,34.007,34.017,38.549,1,0.859
9,1,05,2,018,042,41.999,42.001,46.516,1,0.949
9,1,06,4,024,054,54.007,54.018,58.533,1,0.700
9,1,07,3,029,062,62.008,62.018,66.550,1,0.685
9,1,08,4,031,072,71.999,72.010,76.542,2,0.633
9,1,09,2,008,080,80.007,80.011,84.542,1,0.569
9,1,10,1,022,088,88.007,88.027,92.559,1,0.799
9,1,11,1,007,100,100.008,100.011,104.543,1,0.565
9,1,12,4,013,112,112.008,112.012,116.543,2,0.711
9,1,13,2,042,120,120.008,120.012,124.543,2,0.466
9,1,14,2,025,132,132.007,132.012,136.544,1,0.958
9,1,15,1,001,140,140.008,140.013,144.544,2,0.683
9,1,16,3,037,150,150.007,150.021,154.552,1,0.836
9,1,17,4,034,162,162.007,162.022,166.553,2,0.811
9,1,18,1,004,172,172.007,172.014,176.545,1,0.770
9,1,19,2,030,182,182.007,182.022,186.554,1,0.773
9,1,20,3,021,190,190.008,190.023,194.554,2,0.481
9,1,21,4,005,198,198.008,198.023,202.554,1,0.676
9,1,22,1,038,210,210.008,210.023,214.555,2,0.852
9,1,23,4,040,222,222.017,222.024,226.555,1,1.148
9,1,24,2,045,234,234.016,234.024,238.555,2,0.406
9,1,25,1,028,244,244.008,244.016,248.547,1,0.522
9,1,26,1,041,252,252.017,252.033,256.564,2,0.851
9,1,27,2,044,260,260.007,260.017,264.548,1,0.661
9,1,28,1,023,272,272.016,272.034,276.565,2,0.396
9,1,29,1,002,280,280.016,280.034,284.566,2,0.614
9,1,30,3,011,292,292.008,292.018,296.549,2,0.575
9,1,31,4,010,300,300.016,300.035,304.549,3,0.530
9,1,32,3,009,312,312.007,312.018,316.550,2,0.406
9,1,33,4,035,322,322.016,322.027,326.542,2,0.471
9,1,34,3,015,334,334.015,334.027,338.559,2,0.623
9,1,35,3,043,342,342.008,342.011,346.542,1,0.639
9,1,36,2,003,352,352.016,352.020,356.551,2,0.666
9,1,37,1,006,364,364.008,364.020,368.551,2,0.603
9,1,38,4,048,372,372.016,372.020,376.535,2,0.788
9,1,39,2,017,382,382.016,382.029,386.544,2,0.862
9,1,40,4,012,390,390.016,390.029,394.561,2,0.841
9,1,41,2,026,400,400.015,400.021,404.553,1,0.696
9,1,42,1,020,410,410.007,410.013,414.545,1,0.514
9,1,43,2,019,422,422.016,422.030,426.562,1,0.587
9,1,44,2,047,434,434.016,434.031,438.562,1,0.523
9,1,45,4,046,444,444.017,444.023,448.554,2,0.470
9,1,46,4,039,454,454.017,454.031,458.546,2,0.565
9,1,47,3,033,464,464.017,464.023,468.555,3,0.548
9,1,48,3,032,474,474.016,474.032,478.563,2,0.535
9,2,01,3,048,004,4.007,4.016,8.531,1,0.661
9,2,02,1,025,014,14.008,14.025,18.556,1,0.448
9,2,03,3,013,026,26.008,26.026,30.557,2,0.725
9,2,04,2,036,036,36.007,36.018,40.549,1,0.507
9,2,05,4,007,046,46.009,46.026,50.557,1,0.473
9,2,06,1,003,056,56.008,56.018,60.549,1,0.476
9,2,07,4,041,064,64.008,64.018,68.550,1,0.528
9,2,08,4,002,076,76.008,76.019,80.550,1,0.507
9,2,09,2,015,086,86.007,86.012,90.542,2,0.496
9,2,10,2,014,094,94.008,94.011,98.542,1,0.339
9,2,11,3,012,106,106.008,106.012,110.543,1,0.642
9,2,12,4,038,118,118.008,118.012,122.543,1,0.480
9,2,13,2,029,128,128.007,128.021,132.552,2,0.446
9,2,14,3,034,136,136.008,136.021,140.552,1,0.702
9,2,15,1,047,148,148.007,148.021,152.553,1,0.347
9,2,16,2,033,160,160.008,160.022,164.553,2,0.400
9,2,17,3,039,170,170.008,170.014,174.545,2,0.358
9,2,18,3,035,182,182.007,182.014,186.545,2,0.672
9,2,19,1,019,194,194.007,194.015,198.546,1,0.439
9,2,20,1,026,206,206.007,206.015,210.546,2,0.517
9,2,21,4,006,214,214.015,214.032,218.563,2,0.441
9,2,22,2,021,224,224.007,224.024,228.555,2,0.410
9,2,23,4,028,236,236.008,236.024,240.539,1,0.637
9,2,24,1,017,248,248.016,248.025,252.539,2,0.326
9,2,25,2,043,260,260.016,260.025,264.556,2,0.306
9,2,26,1,008,268,268.007,268.025,272.557,1,0.500
9,2,27,1,030,276,276.016,276.026,280.557,1,0.412
9,2,28,2,011,288,288.016,288.026,292.557,2,0.460
9,2,29,3,010,298,298.015,298.018,302.549,2,0.395
9,2,30,4,020,310,310.016,310.018,314.550,3,0.650
9,2,31,1,044,318,318.008,318.019,322.550,2,0.317
9,2,32,3,005,326,326.016,326.019,330.550,2,0.543
9,2,33,3,046,334,334.008,334.019,338.551,1,0.414
9,2,34,1,018,344,344.016,344.028,348.559,1,0.364
9,2,35,3,040,356,356.015,356.028,360.560,3,0.429
9,2,36,2,032,364,364.016,364.029,368.560,3,0.499
9,2,37,3,031,374,374.015,374.021,378.535,1,0.392
9,2,38,2,037,382,382.015,382.021,386.552,2,0.422
9,2,39,1,042,392,392.016,392.030,396.561,1,0.278
9,2,40,4,027,400,400.008,400.013,404.544,2,0.332
9,2,41,4,023,410,410.015,410.022,414.553,2,0.415
9,2,42,3,024,418,418.008,418.022,422.553,1,1.080
9,2,43,4,001,428,428.016,428.031,432.545,2,1.088
9,2,44,4,004,438,438.016,438.024,442.554,1,0.637
9,2,45,2,009,446,446.016,446.023,450.554,1,0.346
9,2,46,1,045,454,454.016,454.023,458.538,1,0.361
9,2,47,2,016,466,466.015,466.024,470.555,1,0.328
9,2,48,4,022,474,474.016,474.024,478.555,1,0.407
9,3,01,1,014,004,4.009,4.021,8.552,2,0.385
9,3,02,2,040,012,12.001,12.005,16.536,1,0.493
9,3,03,1,016,020,20.009,20.021,24.553,1,0.424
9,3,04,4,008,028,28.001,28.005,32.537,1,0.437
9,3,05,2,012,036,36.009,36.022,40.553,2,0.711
9,3,06,2,046,044,44.001,44.006,48.520,1,0.489
9,3,07,4,045,056,56.001,56.006,60.537,1,0.592
9,3,08,2,034,066,66.009,66.015,70.529,2,0.382
9,3,09,1,032,076,76.002,76.007,80.521,1,0.816
9,3,10,3,020,084,84.010,84.024,88.555,2,0.557
9,3,11,4,017,094,94.009,94.016,98.530,3,1.165
9,3,12,1,015,104,104.009,104.024,108.556,1,0.461
9,3,13,4,018,114,114.009,114.016,118.548,1,0.433
9,3,14,2,031,124,124.002,124.008,128.540,1,0.406
9,3,15,1,036,136,136.009,136.025,140.557,1,0.318
9,3,16,3,027,146,146.009,146.017,150.549,2,0.287
9,3,17,4,025,154,154.008,154.018,158.550,1,0.430
9,3,18,2,005,166,166.009,166.018,170.549,1,0.479
9,3,19,4,047,178,178.009,178.018,182.550,1,0.382
9,3,20,3,038,188,188.009,188.027,192.558,2,0.463
9,3,21,3,007,200,200.010,200.011,204.542,2,0.314
9,3,22,3,001,212,212.010,212.028,216.543,2,0.377
9,3,23,1,009,224,224.001,224.012,228.543,1,0.292
9,3,24,3,041,234,234.009,234.020,238.552,1,0.337
9,3,25,4,019,244,244.009,244.012,248.544,2,0.273
9,3,26,4,030,252,252.008,252.013,256.527,1,0.306
9,3,27,3,002,260,260.009,260.013,264.528,1,1.189
9,3,28,2,039,268,268.009,268.013,272.545,3,0.525
9,3,29,2,048,280,280.009,280.014,284.528,1,0.446
9,3,30,3,004,292,292.008,292.014,296.545,1,0.436
9,3,31,2,024,302,302.009,302.023,306.537,2,0.729
9,3,32,4,042,314,314.009,314.023,318.554,2,0.341
9,3,33,1,037,324,324.009,324.015,328.546,1,0.551
9,3,34,2,035,334,334.009,334.024,338.555,2,0.334
9,3,35,4,044,344,344.008,344.016,348.547,2,0.420
9,3,36,2,013,356,356.009,356.016,360.547,2,0.566
9,3,37,1,043,366,366.009,366.025,370.556,1,0.695
9,3,38,1,029,378,378.009,378.025,382.556,1,0.529
9,3,39,4,003,390,390.009,390.026,394.540,1,0.646
9,3,40,3,023,400,400.017,400.034,404.566,1,0.416
9,3,41,3,006,408,408.009,408.018,412.533,2,0.357
9,3,42,1,033,420,420.016,420.035,424.566,2,0.293
9,3,43,2,010,432,432.016,432.035,436.567,2,0.347
9,3,44,4,026,440,440.008,440.019,444.550,1,0.359
9,3,45,1,021,448,448.016,448.019,452.551,3,0.556
9,3,46,1,011,456,456.009,456.019,460.551,1,0.553
9,3,47,3,022,464,464.017,464.020,468.551,2,0.420
9,3,48,3,028,476,476.009,476.020,480.551,1,0.320
9,4,01,4,021,004,3.999,4.015,8.546,3,0.476
9,4,02,4,011,014,13.999,14.007,18.538,2,0.298
9,4,03,4,015,024,23.999,24.016,28.530,3,0.530
9,4,04,2,006,036,35.999,36.016,40.547,1,0.322
9,4,05,2,023,048,48.000,48.016,52.548,2,0.392
9,4,06,1,040,056,56.008,56.017,60.531,1,0.337
9,4,07,2,002,064,64.000,64.017,68.548,1,0.387
9,4,08,3,019,072,72.008,72.017,76.549,1,0.269
9,4,09,1,034,082,82.000,82.009,86.541,1,0.308
9,4,10,3,047,090,90.008,90.026,94.557,1,0.309
9,4,11,4,014,098,98.000,98.010,102.525,3,0.506
9,4,12,1,010,110,110.000,110.010,114.542,2,0.367
9,4,13,2,041,118,118.007,118.011,122.542,2,0.394
9,4,14,3,018,126,125.999,126.011,130.542,1,0.802
9,4,15,3,030,138,138.007,138.011,142.542,1,0.290
9,4,16,4,009,150,150.008,150.012,154.543,2,0.252
9,4,17,4,033,162,161.999,162.012,166.543,2,0.288
9,4,18,1,005,172,172.007,172.021,176.552,1,0.546
9,4,19,1,035,182,182.007,182.013,186.544,1,0.368
9,4,20,3,017,194,194.000,194.013,198.544,2,0.592
9,4,21,3,025,204,204.007,204.022,208.553,1,0.293
9,4,22,1,048,212,212.000,212.006,216.537,1,0.666
9,4,23,2,004,222,222.007,222.015,226.545,2,0.301
9,4,24,2,028,230,230.007,230.015,234.546,3,0.727
9,4,25,2,038,242,242.000,242.015,246.529,2,0.334
9,4,26,1,046,250,250.008,250.015,254.546,2,0.243
9,4,27,2,001,260,260.000,260.007,264.538,2,0.378
9,4,28,4,032,272,272.007,272.024,276.555,2,0.269
9,4,29,3,003,282,282.008,282.016,286.547,1,0.426
9,4,30,2,007,294,294.000,294.016,298.548,2,0.257
9,4,31,4,016,302,302.008,302.017,306.548,2,0.316
9,4,32,1,013,314,314.007,314.017,318.548,1,0.318
9,4,33,3,045,324,324.000,324.009,328.540,1,0.685
9,4,34,4,043,332,332.008,332.026,336.557,1,0.265
9,4,35,4,029,344,344.007,344.026,348.558,2,0.262
9,4,36,2,020,354,354.008,354.018,358.550,2,0.283
9,4,37,1,012,366,366.008,366.019,370.550,1,0.390
9,4,38,4,036,376,376.007,376.011,380.542,2,0.382
9,4,39,2,022,384,384.008,384.011,388.542,2,0.304
9,4,40,1,031,392,392.007,392.012,396.543,1,0.401
9,4,41,2,027,402,402.007,402.020,406.551,2,0.385
9,4,42,1,024,412,412.008,412.013,416.543,2,0.306
9,4,43,1,039,424,424.007,424.013,428.527,1,0.347
9,4,44,4,037,434,434.016,434.021,438.552,1,0.284
9,4,45,3,008,444,444.008,444.013,448.544,1,0.474
9,4,46,3,044,452,452.015,452.030,456.561,3,0.515
9,4,47,3,026,464,464.016,464.030,468.562,2,0.367
9,4,48,3,042,476,476.007,476.014,480.546,2,0.349
10,1,01,4,013,004,4.000,4.017,8.548,3,0.699
10,1,02,2,015,012,12.000,12.017,16.549,1,0.518
10,1,03,2,008,020,20.002,20.018,24.549,1,0.359
10,1,04,3,006,028,28.001,28.018,32.549,2,0.279
10,1,05,3,030,040,39.993,40.002,44.533,1,0.275
10,1,06,3,002,048,48.001,48.019,52.550,3,0.521
10,1,07,1,001,058,58.000,58.011,62.525,1,0.273
10,1,08,1,019,070,70.001,70.011,74.542,1,0.227
10,1,09,2,039,078,78.001,78.011,82.543,2,0.287
10,1,10,3,017,090,90.001,90.012,94.543,2,0.312
10,1,11,3,012,100,100.000,100.004,104.518,1,0.007
10,1,12,1,004,108,108.001,108.004,112.535,2,0.267
10,1,13,3,023,118,118.001,118.012,122.544,4,0.244
10,1,14,2,020,126,126.001,126.013,130.544,2,0.383
10,1,15,4,007,136,136.001,136.005,140.536,2,0.260
10,1,16,4,021,148,148.001,148.005,152.537,1,0.209
10,1,17,2,011,158,158.002,158.014,162.529,2,0.677
10,1,18,1,010,166,166.000,166.014,170.546,1,0.268
10,1,19,4,014,178,178.001,178.015,182.546,2,0.267
10,1,20,1,018,188,188.009,188.023,192.555,1,0.226
10,1,21,2,045,200,200.009,200.024,204.555,1,0.302
10,1,22,4,016,210,210.001,210.016,214.547,2,0.285
10,1,23,1,026,218,218.008,218.016,222.547,1,0.445
10,1,24,4,024,228,228.001,228.008,232.539,1,0.353
10,1,25,3,027,240,240.001,240.008,244.540,1,0.361
10,1,26,4,044,248,248.009,248.025,252.557,2,0.222
10,1,27,4,048,256,256.001,256.009,260.540,2,0.308
10,1,28,2,040,266,266.009,266.018,270.532,3,0.242
10,1,29,1,041,278,278.008,278.018,282.533,1,0.287
10,1,30,2,022,290,290.001,290.002,294.533,2,0.348
10,1,31,2,025,300,300.009,300.027,304.558,2,0.329
10,1,32,4,003,308,308.000,308.011,312.542,1,0.512
10,1,33,1,037,316,316.009,316.028,320.542,4,0.374
10,1,34,4,035,328,328.009,328.028,332.559,2,0.243
10,1,35,2,031,340,340.001,340.012,344.526,1,0.286
10,1,36,1,009,352,352.009,352.012,356.543,2,0.228
10,1,37,4,038,364,364.009,364.013,368.544,4,0.356
10,1,38,3,028,372,372.001,372.013,376.528,2,0.345
10,1,39,3,005,380,380.008,380.014,384.544,3,0.309
10,1,40,1,047,390,390.001,390.005,394.536,3,0.380
10,1,41,2,046,400,400.008,400.014,404.545,2,0.246
10,1,42,3,043,410,410.008,410.022,414.554,1,0.290
10,1,43,3,034,420,420.009,420.014,424.546,1,0.231
10,1,44,1,032,430,430.008,430.023,434.554,3,0.348
10,1,45,3,033,442,442.009,442.024,446.555,2,0.398
10,1,46,2,036,454,454.008,454.024,458.555,1,0.308
10,1,47,1,029,466,466.009,466.024,470.556,2,0.262
10,1,48,4,042,474,474.009,474.025,478.556,1,0.207
10,2,01,2,042,004,4.008,4.026,8.557,1,0.300
10,2,02,2,014,014,14.008,14.018,18.549,2,0.212
10,2,03,3,032,022,22.008,22.018,26.533,3,0.664
10,2,04,4,036,034,34.001,34.018,38.533,3,0.505
10,2,05,1,043,042,42.008,42.019,46.550,1,0.235
10,2,06,1,028,054,54.008,54.019,58.550,1,0.284
10,2,07,3,018,062,62.008,62.019,66.551,3,0.364
10,2,08,4,045,070,70.001,70.020,74.551,1,0.354
10,2,09,3,047,078,78.008,78.020,82.551,4,0.529
10,2,10,2,044,086,86.000,86.003,90.518,1,0.199
10,2,11,4,015,094,94.008,94.020,98.552,1,0.236
10,2,12,1,027,104,104.009,104.012,108.527,1,0.308
10,2,13,4,022,116,116.000,116.013,120.544,2,0.518
10,2,14,3,026,128,128.008,128.014,132.544,3,0.535
10,2,15,3,019,140,140.009,140.014,144.545,1,0.412
10,2,16,2,016,150,150.009,150.022,154.553,2,0.355
10,2,17,1,002,162,162.009,162.023,166.554,2,0.368
10,2,18,2,038,172,172.009,172.015,176.546,1,0.536
10,2,19,1,005,182,182.008,182.023,186.555,1,0.407
10,2,20,2,024,190,190.008,190.024,194.555,1,0.123
10,2,21,1,033,200,200.009,200.016,204.530,3,0.266
10,2,22,4,025,208,208.009,208.016,212.547,1,0.244
10,2,23,4,039,218,218.009,218.024,222.556,1,0.079
10,2,24,3,001,230,230.016,230.025,234.556,1,0.007
10,2,25,1,034,242,242.008,242.025,246.540,2,0.313
10,2,26,1,023,250,250.009,250.026,254.557,1,0.315
10,2,27,4,008,260,260.017,260.034,264.565,1,0.299
10,2,28,4,040,268,268.009,268.018,272.549,1,0.339
10,2,29,2,021,280,280.016,280.035,284.566,1,0.242
10,2,30,1,030,290,290.017,290.027,294.558,1,0.276
10,2,31,3,041,300,300.009,300.019,304.550,1,0.958
10,2,32,2,013,308,308.016,308.019,312.550,2,0.384
10,2,33,2,007,316,316.009,316.020,320.534,4,0.369
10,2,34,1,012,328,328.016,328.020,332.551,1,0.201
10,2,35,1,006,336,336.016,336.020,340.551,1,0.228
10,2,36,1,017,344,344.017,344.020,348.552,4,0.249
10,2,37,3,010,354,354.017,354.029,358.560,1,0.359
10,2,38,3,004,364,364.017,364.021,368.552,2,0.561
10,2,39,3,037,376,376.017,376.022,380.537,4,0.393
10,2,40,2,035,386,386.009,386.014,390.545,2,0.474
10,2,41,4,031,396,396.017,396.022,400.553,1,0.368
10,2,42,4,011,408,408.016,408.023,412.554,1,0.241
10,2,43,3,029,418,418.008,418.015,422.546,3,0.719
10,2,44,2,048,430,430.018,430.032,434.563,2,0.056
10,2,45,3,009,438,438.016,438.032,442.563,2,0.654
10,2,46,2,003,450,450.008,450.016,454.547,1,0.165
10,2,47,4,046,462,462.016,462.033,466.564,1,0.309
10,2,48,4,020,472,472.016,472.025,476.556,1,0.279
10,3,01,2,028,004,4.000,4.007,8.537,1,0.281
10,3,02,1,020,012,12.000,12.006,16.521,1,0.294
10,3,03,4,018,024,24.000,24.007,28.538,2,0.299
10,3,04,3,035,034,34.000,34.015,38.547,3,0.253
10,3,05,4,009,044,44.001,44.008,48.539,1,0.227
10,3,06,4,047,056,56.008,56.025,60.556,2,0.350
10,3,07,4,037,066,66.001,66.017,70.548,2,0.229
10,3,08,1,015,074,74.000,74.017,78.548,1,0.429
10,3,09,2,012,084,83.999,84.009,88.540,1,0.286
10,3,10,1,045,094,94.000,94.018,98.532,4,0.285
10,3,11,1,046,104,104.008,104.026,108.557,1,0.378
10,3,12,3,013,112,111.999,112.010,116.541,4,0.551
10,3,13,4,032,120,120.007,120.027,124.558,2,0.422
10,3,14,2,023,132,132.008,132.011,136.542,4,0.298
10,3,15,2,043,140,140.008,140.012,144.542,1,0.242
10,3,16,2,030,152,152.008,152.011,156.542,1,0.170
10,3,17,1,040,160,160.000,160.011,164.526,1,0.339
10,3,18,3,038,168,168.008,168.012,172.543,3,0.357
10,3,19,2,017,176,176.000,176.012,180.543,1,0.234
10,3,20,4,029,186,186.007,186.021,190.552,1,1.900
10,3,21,3,016,198,198.008,198.021,202.552,2,0.305
10,3,22,3,007,210,210.000,210.005,214.536,4,0.201
10,3,23,3,014,222,222.008,222.022,226.553,1,0.233
10,3,24,1,025,232,232.009,232.014,236.529,1,0.130
10,3,25,4,004,240,240.008,240.014,244.545,2,0.510
10,3,26,4,001,250,250.008,250.023,254.554,2,0.374
10,3,27,4,026,258,258.000,258.006,262.538,1,0.326
10,3,28,3,044,268,268.008,268.015,272.546,1,0.185
10,3,29,3,048,278,278.007,278.024,282.555,2,0.239
10,3,30,4,019,290,290.008,290.024,294.555,2,0.532
10,3,31,2,006,298,298.007,298.024,302.556,2,0.789
10,3,32,1,031,308,308.000,308.016,312.548,2,0.305
10,3,33,2,002,316,316.007,316.017,320.548,4,0.304
10,3,34,2,034,326,326.008,326.025,330.540,3,0.292
10,3,35,3,003,334,334.009,334.026,338.557,2,0.064
10,3,36,2,005,346,346.008,346.026,350.557,2,0.486
10,3,37,3,021,356,356.008,356.018,360.549,1,0.811
10,3,38,2,033,366,366.008,366.027,370.558,2,0.307
10,3,39,1,036,378,378.007,378.010,382.542,1,0.203
10,3,40,3,042,386,386.007,386.011,390.542,1,0.049
10,3,41,2,027,396,396.009,396.019,400.551,2,0.346
10,3,42,4,041,404,404.017,404.020,408.551,1,0.627
10,3,43,1,011,416,416.009,416.020,420.535,1,0.229
10,3,44,1,008,424,424.008,424.020,428.552,2,0.570
10,3,45,3,024,436,436.016,436.021,440.552,2,0.303
10,3,46,4,010,448,448.015,448.021,452.552,2,0.522
10,3,47,1,039,460,460.009,460.022,464.553,1,0.220
10,3,48,1,022,472,472.016,472.022,476.553,3,0.266
10,4,01,2,001,004,4.007,4.019,8.551,2,0.280
10,4,02,1,013,016,15.999,16.004,20.534,2,0.189
10,4,03,4,017,024,24.009,24.020,28.551,2,0.206
10,4,04,2,026,034,34.000,34.012,38.543,1,0.295
10,4,05,2,009,042,42.007,42.013,46.544,2,0.085
10,4,06,1,021,050,50.000,50.013,54.527,1,0.049
10,4,07,3,046,062,62.008,62.013,66.544,1,0.212
10,4,08,3,036,070,70.000,70.013,74.545,2,0.163
10,4,09,1,016,078,78.007,78.014,82.528,2,0.397
10,4,10,1,003,086,86.001,86.014,90.545,2,0.373
10,4,11,4,034,096,96.008,96.023,100.537,2,0.236
10,4,12,1,007,106,106.008,106.015,110.546,3,0.445
10,4,13,4,030,116,116.000,116.007,120.538,1,0.410
10,4,14,2,032,128,128.007,128.024,132.555,1,0.280
10,4,15,1,042,140,140.008,140.024,144.555,1,0.035
10,4,16,3,022,150,150.000,150.016,154.547,2,0.412
10,4,17,3,011,160,160.008,160.025,164.539,1,0.007
10,4,18,4,033,168,168.008,168.025,172.556,3,0.654
10,4,19,3,008,180,180.008,180.025,184.557,2,0.205
10,4,20,4,005,190,190.007,190.017,194.549,1,0.241
10,4,21,2,041,202,202.008,202.018,206.549,2,0.213
10,4,22,3,015,210,210.008,210.018,214.549,2,0.947
10,4,23,4,006,218,218.008,218.018,222.550,1,0.202
10,4,24,2,019,228,228.008,228.027,232.558,1,0.232
10,4,25,1,024,238,238.008,238.019,242.550,1,0.504
10,4,26,4,043,250,250.008,250.019,254.551,1,0.007
10,4,27,3,025,258,258.008,258.020,262.551,2,0.293
10,4,28,2,047,268,268.008,268.012,272.543,3,0.535
10,4,29,2,004,280,280.017,280.029,284.560,1,2.061
10,4,30,1,035,290,290.015,290.021,294.552,1,0.110
10,4,31,1,048,302,302.008,302.021,306.552,2,0.015
10,4,32,3,039,314,314.016,314.022,318.553,1,0.293
10,4,33,1,038,322,322.016,322.022,326.553,3,0.293
10,4,34,3,031,332,332.008,332.014,336.545,1,0.268
10,4,35,3,020,344,344.016,344.031,348.562,1,0.351
10,4,36,2,018,354,354.016,354.023,358.538,3,0.462
10,4,37,3,040,364,364.016,364.032,368.563,2,0.199
10,4,38,4,027,374,374.016,374.024,378.538,1,0.826
10,4,39,2,029,382,382.008,382.024,386.555,4,0.272
10,4,40,4,028,394,394.016,394.024,398.556,2,0.024
10,4,41,4,002,406,406.016,406.025,410.556,1,0.183
10,4,42,4,023,418,418.015,418.025,422.556,1,0.275
10,4,43,3,045,426,426.017,426.025,430.557,2,0.236
10,4,44,2,010,438,438.017,438.026,442.540,3,0.210
10,4,45,1,014,450,450.008,450.026,454.557,3,0.246
10,4,46,4,012,458,458.017,458.026,462.558,1,0.343
10,4,47,2,037,466,466.009,466.027,470.558,2,0.160
10,4,48,1,044,476,476.016,476.019,480.550,1,0.191
11,1,01,4,036,004,3.992,4.009,8.523,2,0.686
11,1,02,3,031,016,16.002,16.026,20.557,3,1.207
11,1,03,2,041,024,24.001,24.009,28.541,2,0.255
11,1,04,2,006,032,32.001,32.010,36.541,3,0.696
11,1,05,4,037,044,44.001,44.010,48.541,2,0.419
11,1,06,3,010,054,54.000,54.019,58.550,2,0.550
11,1,07,1,001,066,66.001,66.019,70.550,3,0.516
11,1,08,2,011,078,78.002,78.003,82.518,2,0.698
11,1,09,4,008,086,86.001,86.020,90.551,2,0.445
11,1,10,1,026,094,94.000,94.004,98.535,2,0.623
11,1,11,4,025,104,104.000,104.012,108.543,2,0.603
11,1,12,1,021,116,116.000,116.012,120.544,2,0.391
11,1,13,4,038,126,126.000,126.004,130.536,2,0.432
11,1,14,1,018,138,138.000,138.005,142.520,3,0.749
11,1,15,4,030,146,146.002,146.005,150.536,3,0.573
11,1,16,2,016,158,158.001,158.006,162.537,3,0.430
11,1,17,3,019,170,170.001,170.007,174.537,2,0.392
11,1,18,3,003,182,182.009,182.023,186.554,3,0.430
11,1,19,3,005,192,192.001,192.015,196.546,3,0.554
11,1,20,3,014,202,202.000,202.008,206.538,3,0.635
11,1,21,1,046,210,210.009,210.024,214.555,1,0.391
11,1,22,2,047,218,218.000,218.008,222.539,3,0.399
11,1,23,2,020,228,228.009,228.016,232.548,2,0.343
11,1,24,1,022,236,236.001,236.016,240.548,4,0.877
11,1,25,3,004,244,244.009,244.017,248.531,2,0.281
11,1,26,4,024,252,252.001,252.017,256.532,2,0.287
11,1,27,4,033,260,260.008,260.017,264.549,4,0.553
11,1,28,1,023,272,272.010,272.018,276.549,1,0.309
11,1,29,2,034,280,280.008,280.018,284.533,2,0.568
11,1,30,3,027,292,292.008,292.018,296.550,3,0.598
11,1,31,2,044,302,302.002,302.010,306.542,3,0.857
11,1,32,3,009,310,310.009,310.027,314.559,2,0.670
11,1,33,4,007,322,322.008,322.011,326.542,2,0.274
11,1,34,3,045,330,330.009,330.028,334.559,2,0.508
11,1,35,1,015,338,338.001,338.012,342.543,2,0.287
11,1,36,1,028,348,348.008,348.021,352.552,1,0.338
11,1,37,2,013,360,360.008,360.021,364.552,2,0.590
11,1,38,4,035,370,370.000,370.013,374.544,1,0.292
11,1,39,4,039,382,382.008,382.013,386.544,2,0.706
11,1,40,3,032,390,390.009,390.013,394.545,2,0.752
11,1,41,1,002,400,400.001,400.005,404.537,2,0.291
11,1,42,2,017,410,410.008,410.014,414.545,3,0.617
11,1,43,2,042,422,422.009,422.014,426.546,3,0.538
11,1,44,1,012,432,432.009,432.023,436.554,1,0.301
11,1,45,3,040,442,442.009,442.016,446.546,2,0.344
11,1,46,4,029,454,454.009,454.016,458.547,2,0.492
11,1,47,2,048,464,464.010,464.024,468.555,2,0.655
11,1,48,1,043,474,474.009,474.016,478.548,4,0.547
11,2,01,4,047,004,4.001,4.008,8.540,2,0.546
11,2,02,4,048,016,16.008,16.025,20.540,2,0.304
11,2,03,2,039,026,26.008,26.017,30.549,3,0.752
11,2,04,1,027,036,36.009,36.026,40.557,2,0.619
11,2,05,3,021,044,44.009,44.026,48.557,2,0.707
11,2,06,2,033,052,52.009,52.026,56.558,3,0.737
11,2,07,4,041,062,62.008,62.019,66.550,2,0.301
11,2,08,1,031,070,70.008,70.019,74.550,1,0.399
11,2,09,1,019,080,80.008,80.027,84.559,1,0.308
11,2,10,1,045,090,90.008,90.019,94.534,3,0.616
11,2,11,4,016,100,100.009,100.011,104.543,1,0.414
11,2,12,1,009,108,108.009,108.028,112.560,2,0.346
11,2,13,4,034,120,120.008,120.012,124.543,1,0.284
11,2,14,3,018,130,130.017,130.021,134.552,1,0.468
11,2,15,4,044,138,138.009,138.021,142.552,2,0.743
11,2,16,3,012,146,146.016,146.021,150.553,1,0.348
11,2,17,1,010,158,158.008,158.022,162.553,1,0.198
11,2,18,2,030,170,170.008,170.022,174.553,4,1.329
11,2,19,3,022,182,182.016,182.023,186.554,3,2.016
11,2,20,2,036,192,192.016,192.031,196.562,2,0.795
11,2,21,3,046,204,204.009,204.015,208.546,1,0.515
11,2,22,2,008,212,212.017,212.032,216.547,2,0.368
11,2,23,3,043,224,224.016,224.032,228.564,4,0.532
11,2,24,2,007,236,236.009,236.016,240.547,3,0.922
11,2,25,3,001,246,246.017,246.025,250.539,2,0.480
11,2,26,2,038,256,256.016,256.033,260.565,3,0.619
11,2,27,1,014,268,268.008,268.017,272.548,1,0.291
11,2,28,4,042,276,276.017,276.034,280.565,1,0.432
11,2,29,1,005,286,286.009,286.026,290.557,2,0.679
11,2,30,3,026,294,294.016,294.026,298.558,1,0.743
11,2,31,2,024,306,306.016,306.027,310.541,4,0.975
11,2,32,2,037,314,314.017,314.027,318.558,3,0.424
11,2,33,4,006,324,324.016,324.019,328.550,2,0.349
11,2,34,1,032,336,336.010,336.019,340.551,2,0.821
11,2,35,4,017,344,344.016,344.020,348.551,4,0.630
11,2,36,1,003,352,352.008,352.020,356.551,3,0.324
11,2,37,3,023,364,364.017,364.021,368.552,1,0.313
11,2,38,2,025,376,376.017,376.021,380.552,3,0.723
11,2,39,3,028,386,386.018,386.029,390.561,2,0.637
11,2,40,2,035,396,396.017,396.021,400.553,3,0.478
11,2,41,3,002,406,406.017,406.030,410.561,2,0.475
11,2,42,4,020,416,416.017,416.022,420.553,2,0.515
11,2,43,2,029,424,424.017,424.022,428.554,3,0.246
11,2,44,4,011,436,436.016,436.024,440.554,3,1.035
11,2,45,1,004,444,444.017,444.023,448.554,3,0.317
11,2,46,4,013,452,452.017,452.023,456.555,3,0.303
11,2,47,3,015,460,460.016,460.024,464.555,2,0.718
11,2,48,1,040,472,472.017,472.024,476.555,3,0.337
11,3,01,1,044,004,3.992,3.996,8.527,1,0.381
11,3,02,1,016,014,14.000,14.006,18.536,1,0.283
11,3,03,4,022,026,26.001,26.005,30.537,2,0.267
11,3,04,4,018,034,34.000,34.006,38.537,1,0.297
11,3,05,4,021,042,41.999,42.006,46.537,3,0.233
11,3,06,2,004,050,50.000,50.006,54.537,2,0.272
11,3,07,2,003,060,59.999,60.015,64.546,3,0.885
11,3,08,2,032,070,69.993,70.007,74.538,3,0.983
11,3,09,4,026,078,78.000,78.007,82.538,2,0.560
11,3,10,3,039,086,85.992,86.007,90.539,2,0.724
11,3,11,3,025,094,94.000,94.008,98.539,3,0.776
11,3,12,3,024,104,104.000,104.016,108.547,3,0.688
11,3,13,2,019,114,114.001,114.008,118.540,2,0.939
11,3,14,3,037,124,124.000,124.017,128.548,2,0.047
11,3,15,2,014,136,136.000,136.017,140.549,3,0.767
11,3,16,1,042,146,145.999,146.009,150.541,3,0.519
11,3,17,3,036,158,158.000,158.010,162.541,1,1.079
11,3,18,1,048,166,166.008,166.027,170.558,1,0.144
11,3,19,4,001,178,178.001,178.011,182.542,2,0.249
11,3,20,3,030,190,190.001,190.011,194.542,3,0.356
11,3,21,1,034,202,201.999,202.011,206.542,1,0.177
11,3,22,2,010,214,214.008,214.012,218.543,3,0.677
11,3,23,4,012,222,222.000,222.012,226.543,3,0.866
11,3,24,1,013,234,234.007,234.012,238.543,1,0.188
11,3,25,1,011,246,246.008,246.013,250.544,2,0.739
11,3,26,1,017,254,254.000,254.013,258.544,2,0.190
11,3,27,2,027,266,266.009,266.013,270.528,1,0.249
11,3,28,1,006,278,278.009,278.014,282.545,1,0.391
11,3,29,1,020,288,288.000,288.006,292.521,4,0.838
11,3,30,2,009,298,298.008,298.015,302.546,2,1.071
11,3,31,3,038,308,308.007,308.023,312.538,3,0.404
11,3,32,2,045,316,316.008,316.023,320.555,2,0.496
11,3,33,4,028,326,326.007,326.015,330.547,2,0.362
11,3,34,1,041,334,334.008,334.016,338.547,3,0.661
11,3,35,3,035,346,346.009,346.016,350.547,2,0.587
11,3,36,4,046,356,355.999,356.008,360.539,2,0.570
11,3,37,4,002,366,366.008,366.017,370.548,1,0.143
11,3,38,3,029,374,374.008,374.017,378.548,1,1.076
11,3,39,4,043,386,385.999,386.018,390.549,4,0.693
11,3,40,3,007,398,398.007,398.018,402.549,2,0.568
11,3,41,3,033,408,408.009,408.026,412.558,3,0.652
11,3,42,2,005,416,416.008,416.010,420.541,1,0.040
11,3,43,4,015,428,428.008,428.010,432.542,1,0.128
11,3,44,2,040,436,436.008,436.027,440.559,2,0.381
11,3,45,1,047,444,444.008,444.011,448.542,2,0.299
